subjID,experimentName,versionName,sequenceName,zsRT,windowWidth,windowHeight,screenWidth,screenHeight,startDate,startTime,pracTries,trialNum,scene,size_name,image_name,object,side,gabor,objectCategory,objSceneSemCong,scale,image,presentationSize,keyPress,accuracy,RT,ratingTrialNum,rating,thisRatingTrialFile,experimentTime,totalTime,age,gender
693191,Gabor-Discrimination,v2,jsons/s3_even.json,-0.6912650969773356,1436,808,1436,808,2-6-2024,0-56-35,1,0,k10,k10_large_clipboard_L,k10_large_clipboard_L,clipboard,L,V,classroom,0,scaled,k10_large_clipboard_L_V.png,large,m,1,723,0,4,k10_large_clipboard_L_V.png,130168,332775,29,Man
693191,Gabor-Discrimination,v2,jsons/s3_even.json,2.267490498774913,1436,808,1436,808,2-6-2024,0-56-35,1,2,c6,c6_large_flashdrive_L,c6_large_flashdrive_L,flashdrive,L,H,classroom,1,misscaled,c6_large_flashdrive_L_H.png,large,c,1,2332,2,7,c6_large_flashdrive_L_H.png,130168,332775,29,Man
693191,Gabor-Discrimination,v2,jsons/s3_even.json,-0.5625435980943913,1436,808,1436,808,2-6-2024,0-56-35,1,3,c4,c4_large_sponge_L,c4_large_sponge_L,sponge,L,H,kitchen,0,misscaled,c4_large_sponge_L_H.png,large,c,1,793,3,6,c4_large_sponge_L_H.png,130168,332775,29,Man
693191,Gabor-Discrimination,v2,jsons/s3_even.json,-0.04214096689620215,1436,808,1436,808,2-6-2024,0-56-35,1,4,c0,c0_large_spoon_R,c0_large_spoon_R,spoon,R,V,kitchen,0,misscaled,c0_large_spoon_R_V.png,large,m,1,1076,4,6,c0_large_spoon_R_V.png,130168,332775,29,Man
693191,Gabor-Discrimination,v2,jsons/s3_even.json,-0.2977450861066201,1436,808,1436,808,2-6-2024,0-56-35,1,5,k8,k8_large_toaster_R,k8_large_toaster_R,toaster,R,V,kitchen,1,scaled,k8_large_toaster_R_V.png,large,m,1,937,5,4,k8_large_toaster_R_V.png,130168,332775,29,Man
693191,Gabor-Discrimination,v2,jsons/s3_even.json,-0.5257660269849787,1436,808,1436,808,2-6-2024,0-56-35,1,6,c8,c8_large_saltshaker_R,c8_large_saltshaker_R,saltshaker,R,V,kitchen,0,misscaled,c8_large_saltshaker_R_V.png,large,m,1,813,6,7,c8_large_saltshaker_R_V.png,130168,332775,29,Man
693191,Gabor-Discrimination,v2,jsons/s3_even.json,-0.31613387166132645,1436,808,1436,808,2-6-2024,0-56-35,1,7,k0,k0_large_kettle_R,k0_large_kettle_R,kettle,R,V,kitchen,1,scaled,k0_large_kettle_R_V.png,large,m,1,927,7,5,k0_large_kettle_R_V.png,130168,332775,29,Man
693191,Gabor-Discrimination,v2,jsons/s3_even.json,0.046125203766388234,1436,808,1436,808,2-6-2024,0-56-35,1,8,k6,k6_large_binderclip_R,k6_large_binderclip_R,binderclip,R,H,classroom,0,misscaled,k6_large_binderclip_R_H.png,large,c,1,1124,8,7,k6_large_binderclip_R_H.png,130168,332775,29,Man
693191,Gabor-Discrimination,v2,jsons/s3_even.json,1.8739704879041972,1436,808,1436,808,2-6-2024,0-56-35,1,9,c2,c2_large_eraser_L,c2_large_eraser_L,eraser,L,H,classroom,1,misscaled,c2_large_eraser_L_H.png,large,c,1,2118,9,7,c2_large_eraser_L_H.png,130168,332775,29,Man
693191,Gabor-Discrimination,v2,jsons/s3_even.json,-0.5643824766498621,1436,808,1436,808,2-6-2024,0-56-35,1,10,c10,c10_large_laptop_R,c10_large_laptop_R,laptop,R,V,classroom,1,scaled,c10_large_laptop_R_V.png,large,m,1,792,10,4,c10_large_laptop_R_V.png,130168,332775,29,Man
693191,Gabor-Discrimination,v2,jsons/s3_even.json,-0.42094994932315255,1436,808,1436,808,2-6-2024,0-56-35,1,11,k2,k2_large_notebook_L,k2_large_notebook_L,notebook,L,H,classroom,0,scaled,k2_large_notebook_L_H.png,large,c,1,870,11,5,k2_large_notebook_L_H.png,130168,332775,29,Man
830827,Gabor-Discrimination,v2,jsons/s0_odd.json,2.2099321899433138,1280,720,1920,1080,2-5-2024,0-22-42,2,0,c11,c11_large_pot_R,c11_large_pot_R,pot,R,H,kitchen,0,scaled,c11_large_pot_R_H.png,large,c,1,3705,0,4,c11_large_pot_R_H.png,151876,502130,23,Non-binary
830827,Gabor-Discrimination,v2,jsons/s0_odd.json,-0.403240672664352,1280,720,1920,1080,2-5-2024,0-22-42,2,1,k3,k3_large_toaster_L,k3_large_toaster_L,toaster,L,H,kitchen,1,scaled,k3_large_toaster_L_H.png,large,c,1,1594,1,5,k3_large_toaster_L_H.png,151876,502130,23,Non-binary
830827,Gabor-Discrimination,v2,jsons/s0_odd.json,0.1872299362716293,1280,720,1920,1080,2-5-2024,0-22-42,2,2,k11,k11_large_sponge_R,k11_large_sponge_R,sponge,R,H,kitchen,1,misscaled,k11_large_sponge_R_H.png,large,c,1,2071,2,6,k11_large_sponge_R_H.png,151876,502130,23,Non-binary
830827,Gabor-Discrimination,v2,jsons/s0_odd.json,-0.008355716164188415,1280,720,1920,1080,2-5-2024,0-22-42,2,3,k9,k9_large_eraser_R,k9_large_eraser_R,eraser,R,V,classroom,0,misscaled,k9_large_eraser_R_V.png,large,m,1,1913,3,7,k9_large_eraser_R_V.png,151876,502130,23,Non-binary
830827,Gabor-Discrimination,v2,jsons/s0_odd.json,-0.44285295670198604,1280,720,1920,1080,2-5-2024,0-22-42,2,4,k7,k7_large_spoon_L,k7_large_spoon_L,spoon,L,H,kitchen,1,misscaled,k7_large_spoon_L_H.png,large,c,1,1562,4,7,k7_large_spoon_L_H.png,151876,502130,23,Non-binary
830827,Gabor-Discrimination,v2,jsons/s0_odd.json,0.5177449312106377,1280,720,1920,1080,2-5-2024,0-22-42,2,5,c7,c7_large_kettle_L,c7_large_kettle_L,kettle,L,H,kitchen,0,scaled,c7_large_kettle_L_H.png,large,c,1,2338,5,4,c7_large_kettle_L_H.png,151876,502130,23,Non-binary
830827,Gabor-Discrimination,v2,jsons/s0_odd.json,-0.6693857060422053,1280,720,1920,1080,2-5-2024,0-22-42,2,6,c9,c9_large_notebook_L,c9_large_notebook_L,notebook,L,V,classroom,1,scaled,c9_large_notebook_L_V.png,large,m,1,1379,6,4,c9_large_notebook_L_V.png,151876,502130,23,Non-binary
830827,Gabor-Discrimination,v2,jsons/s0_odd.json,-0.6322491897569233,1280,720,1920,1080,2-5-2024,0-22-42,2,7,c3,c3_large_saltshaker_R,c3_large_saltshaker_R,saltshaker,R,H,kitchen,0,misscaled,c3_large_saltshaker_R_H.png,large,c,1,1409,7,7,c3_large_saltshaker_R_H.png,151876,502130,23,Non-binary
830827,Gabor-Discrimination,v2,jsons/s0_odd.json,-0.7944119775359875,1280,720,1920,1080,2-5-2024,0-22-42,2,8,c5,c5_large_laptop_R,c5_large_laptop_R,laptop,R,V,classroom,1,scaled,c5_large_laptop_R_V.png,large,m,1,1278,8,3,c5_large_laptop_R_V.png,151876,502130,23,Non-binary
830827,Gabor-Discrimination,v2,jsons/s0_odd.json,1.6256510003882128,1280,720,1920,1080,2-5-2024,0-22-42,2,9,k1,k1_large_binderclip_L,k1_large_binderclip_L,binderclip,L,V,classroom,0,misscaled,k1_large_binderclip_L_V.png,large,m,1,3233,9,7,k1_large_binderclip_L_V.png,151876,502130,23,Non-binary
830827,Gabor-Discrimination,v2,jsons/s0_odd.json,-0.6099672799857543,1280,720,1920,1080,2-5-2024,0-22-42,2,10,c1,c1_large_flashdrive_L,c1_large_flashdrive_L,flashdrive,L,V,classroom,1,misscaled,c1_large_flashdrive_L_V.png,large,m,1,1427,10,7,c1_large_flashdrive_L_V.png,151876,502130,23,Non-binary
830827,Gabor-Discrimination,v2,jsons/s0_odd.json,-0.9800945589623966,1280,720,1920,1080,2-5-2024,0-22-42,2,11,k5,k5_large_clipboard_R,k5_large_clipboard_R,clipboard,R,V,classroom,0,scaled,k5_large_clipboard_R_V.png,large,m,1,1128,11,5,k5_large_clipboard_R_V.png,151876,502130,23,Non-binary
840050,Gabor-Discrimination,v2,jsons/s8_even.json,2.4162120709750994,1536,742,1536,864,2-5-2024,23-56-52,2,0,k6,k6_large_saltshaker_R,k6_large_saltshaker_R,saltshaker,R,V,kitchen,1,misscaled,k6_large_saltshaker_R_V.png,large,m,1,1796,0,7,k6_large_saltshaker_R_V.png,138936,394376,22,Woman
840050,Gabor-Discrimination,v2,jsons/s8_even.json,0.5519435441633941,1536,742,1536,864,2-5-2024,23-56-52,2,1,c6,c6_large_toaster_L,c6_large_toaster_L,toaster,L,H,kitchen,0,scaled,c6_large_toaster_L_H.png,large,c,1,1237,1,5,c6_large_toaster_L_H.png,138936,394376,22,Woman
840050,Gabor-Discrimination,v2,jsons/s8_even.json,-0.3251631151415765,1536,742,1536,864,2-5-2024,23-56-52,2,2,k8,k8_large_laptop_R,k8_large_laptop_R,laptop,R,V,classroom,0,scaled,k8_large_laptop_R_V.png,large,m,1,974,2,4,k8_large_laptop_R_V.png,138936,394376,22,Woman
840050,Gabor-Discrimination,v2,jsons/s8_even.json,0.4285483107250522,1536,742,1536,864,2-5-2024,23-56-52,2,3,k0,k0_large_eraser_R,k0_large_eraser_R,eraser,R,V,classroom,0,misscaled,k0_large_eraser_R_V.png,large,m,1,1200,3,7,k0_large_eraser_R_V.png,138936,394376,22,Woman
840050,Gabor-Discrimination,v2,jsons/s8_even.json,-0.5252634936902391,1536,742,1536,864,2-5-2024,23-56-52,2,4,c0,c0_large_notebook_R,c0_large_notebook_R,notebook,R,H,classroom,1,scaled,c0_large_notebook_R_H.png,large,c,1,914,4,4,c0_large_notebook_R_H.png,138936,394376,22,Woman
840050,Gabor-Discrimination,v2,jsons/s8_even.json,-0.4285483107250522,1536,742,1536,864,2-5-2024,23-56-52,2,5,c8,c8_large_clipboard_L,c8_large_clipboard_L,clipboard,L,H,classroom,1,scaled,c8_large_clipboard_L_H.png,large,c,1,943,5,5,c8_large_clipboard_L_H.png,138936,394376,22,Woman
840050,Gabor-Discrimination,v2,jsons/s8_even.json,-1.1722547176642475,1536,742,1536,864,2-5-2024,23-56-52,2,6,k4,k4_large_flashdrive_L,k4_large_flashdrive_L,flashdrive,L,V,classroom,0,misscaled,k4_large_flashdrive_L_V.png,large,m,1,720,6,7,k4_large_flashdrive_L_V.png,138936,394376,22,Woman
840050,Gabor-Discrimination,v2,jsons/s8_even.json,-0.8754391561503984,1536,742,1536,864,2-5-2024,23-56-52,2,7,c2,c2_large_pot_R,c2_large_pot_R,pot,R,V,kitchen,0,scaled,c2_large_pot_R_V.png,large,m,1,809,7,7,c2_large_pot_R_V.png,138936,394376,22,Woman
840050,Gabor-Discrimination,v2,jsons/s8_even.json,-1.085544553626494,1536,742,1536,864,2-5-2024,23-56-52,2,8,k10,k10_large_kettle_L,k10_large_kettle_L,kettle,L,H,kitchen,1,scaled,k10_large_kettle_L_H.png,large,c,1,746,8,4,k10_large_kettle_L_H.png,138936,394376,22,Woman
840050,Gabor-Discrimination,v2,jsons/s8_even.json,-0.16841781861179092,1536,742,1536,864,2-5-2024,23-56-52,2,9,c4,c4_large_binderclip_L,c4_large_binderclip_L,binderclip,L,H,classroom,1,misscaled,c4_large_binderclip_L_H.png,large,c,1,1021,9,7,c4_large_binderclip_L_H.png,138936,394376,22,Woman
840050,Gabor-Discrimination,v2,jsons/s8_even.json,0.7653839479486341,1536,742,1536,864,2-5-2024,23-56-52,2,10,c10,c10_large_spoon_R,c10_large_spoon_R,spoon,R,V,kitchen,0,misscaled,c10_large_spoon_R_V.png,large,m,1,1301,10,7,c10_large_spoon_R_V.png,138936,394376,22,Woman
840050,Gabor-Discrimination,v2,jsons/s8_even.json,0.4185432917976191,1536,742,1536,864,2-5-2024,23-56-52,2,11,k2,k2_large_sponge_L,k2_large_sponge_L,sponge,L,H,kitchen,1,misscaled,k2_large_sponge_L_H.png,large,c,1,1197,11,7,k2_large_sponge_L_H.png,138936,394376,22,Woman
247187,Gabor-Discrimination,v2,jsons/s8_even.json,1.5693488459071108,1536,791,1536,960,2-6-2024,12-3-3,1,0,k6,k6_large_saltshaker_R,k6_large_saltshaker_R,saltshaker,R,H,kitchen,1,misscaled,k6_large_saltshaker_R_H.png,large,c,1,1793,0,5,k6_large_saltshaker_R_H.png,145915,244927,23,Woman
247187,Gabor-Discrimination,v2,jsons/s8_even.json,1.0983872049213157,1536,791,1536,960,2-6-2024,12-3-3,1,1,c6,c6_large_toaster_L,c6_large_toaster_L,toaster,L,V,kitchen,0,scaled,c6_large_toaster_L_V.png,large,m,1,1643,1,5,c6_large_toaster_L_V.png,145915,244927,23,Woman
247187,Gabor-Discrimination,v2,jsons/s8_even.json,0.15646392294972505,1536,791,1536,960,2-6-2024,12-3-3,1,2,k8,k8_large_laptop_R,k8_large_laptop_R,laptop,R,H,classroom,0,scaled,k8_large_laptop_R_H.png,large,c,1,1343,2,4,k8_large_laptop_R_H.png,145915,244927,23,Woman
247187,Gabor-Discrimination,v2,jsons/s8_even.json,-1.3694517938442514,1536,791,1536,960,2-6-2024,12-3-3,1,3,k0,k0_large_eraser_R,k0_large_eraser_R,eraser,R,H,classroom,0,misscaled,k0_large_eraser_R_H.png,large,c,1,857,3,7,k0_large_eraser_R_H.png,145915,244927,23,Woman
247187,Gabor-Discrimination,v2,jsons/s8_even.json,-1.3317748625653878,1536,791,1536,960,2-6-2024,12-3-3,1,4,c0,c0_large_notebook_L,c0_large_notebook_L,notebook,L,V,classroom,1,scaled,c0_large_notebook_L_V.png,large,m,1,869,4,5,c0_large_notebook_L_V.png,145915,244927,23,Woman
247187,Gabor-Discrimination,v2,jsons/s8_even.json,-0.9675645268697062,1536,791,1536,960,2-6-2024,12-3-3,1,5,c8,c8_large_clipboard_R,c8_large_clipboard_R,clipboard,R,H,classroom,1,scaled,c8_large_clipboard_R_H.png,large,c,1,985,5,7,c8_large_clipboard_R_H.png,145915,244927,23,Woman
247187,Gabor-Discrimination,v2,jsons/s8_even.json,-0.41182979050646784,1536,791,1536,960,2-6-2024,12-3-3,1,6,k4,k4_large_flashdrive_L,k4_large_flashdrive_L,flashdrive,L,V,classroom,0,misscaled,k4_large_flashdrive_L_V.png,large,m,1,1162,6,7,k4_large_flashdrive_L_V.png,145915,244927,23,Woman
247187,Gabor-Discrimination,v2,jsons/s8_even.json,0.9633782011720542,1536,791,1536,960,2-6-2024,12-3-3,1,7,c2,c2_large_pot_L,c2_large_pot_L,pot,L,V,kitchen,0,scaled,c2_large_pot_L_V.png,large,m,1,1600,7,4,c2_large_pot_L_V.png,145915,244927,23,Woman
247187,Gabor-Discrimination,v2,jsons/s8_even.json,-0.8670927101260699,1536,791,1536,960,2-6-2024,12-3-3,1,8,k10,k10_large_kettle_R,k10_large_kettle_R,kettle,R,V,kitchen,1,scaled,k10_large_kettle_R_V.png,large,m,1,1017,8,3,k10_large_kettle_R_V.png,145915,244927,23,Woman
247187,Gabor-Discrimination,v2,jsons/s8_even.json,0.005756197834270593,1536,791,1536,960,2-6-2024,12-3-3,1,9,c4,c4_large_binderclip_R,c4_large_binderclip_R,binderclip,R,H,classroom,1,misscaled,c4_large_binderclip_R_H.png,large,c,1,1295,9,7,c4_large_binderclip_R_H.png,145915,244927,23,Woman
247187,Gabor-Discrimination,v2,jsons/s8_even.json,0.25693573969336136,1536,791,1536,960,2-6-2024,12-3-3,1,11,k2,k2_large_sponge_L,k2_large_sponge_L,sponge,L,V,kitchen,1,misscaled,k2_large_sponge_L_V.png,large,m,1,1375,11,7,k2_large_sponge_L_V.png,145915,244927,23,Woman
390396,Gabor-Discrimination,v2,jsons/s1_even.json,0.6819316513285091,1536,695,1536,864,2-6-2024,19-13-2,2,0,c4,c4_large_saltshaker_L,c4_large_saltshaker_L,saltshaker,L,V,kitchen,0,misscaled,c4_large_saltshaker_L_V.png,large,m,1,1836,0,7,c4_large_saltshaker_L_V.png,189835,464666,47,Man
390396,Gabor-Discrimination,v2,jsons/s1_even.json,-0.5375310899037324,1536,695,1536,864,2-6-2024,19-13-2,2,1,k0,k0_large_pot_L,k0_large_pot_L,pot,L,H,kitchen,1,scaled,k0_large_pot_L_H.png,large,c,1,1273,1,4,k0_large_pot_L_H.png,189835,464666,47,Man
390396,Gabor-Discrimination,v2,jsons/s1_even.json,-0.4443927277847513,1536,695,1536,864,2-6-2024,19-13-2,2,2,k8,k8_large_spoon_L,k8_large_spoon_L,spoon,L,V,kitchen,1,misscaled,k8_large_spoon_L_V.png,large,m,1,1316,2,7,k8_large_spoon_L_V.png,189835,464666,47,Man
390396,Gabor-Discrimination,v2,jsons/s1_even.json,1.5505010282985423,1536,695,1536,864,2-6-2024,19-13-2,2,3,k2,k2_large_binderclip_R,k2_large_binderclip_R,binderclip,R,H,classroom,0,misscaled,k2_large_binderclip_R_H.png,large,c,1,2237,3,7,k2_large_binderclip_R_H.png,189835,464666,47,Man
390396,Gabor-Discrimination,v2,jsons/s1_even.json,-0.7108117636134648,1536,695,1536,864,2-6-2024,19-13-2,2,4,c8,c8_large_kettle_L,c8_large_kettle_L,kettle,L,V,kitchen,0,scaled,c8_large_kettle_L_V.png,large,m,1,1193,4,6,c8_large_kettle_L_V.png,189835,464666,47,Man
390396,Gabor-Discrimination,v2,jsons/s1_even.json,-0.6285034436013419,1536,695,1536,864,2-6-2024,19-13-2,2,5,k6,k6_large_clipboard_R,k6_large_clipboard_R,clipboard,R,H,classroom,0,scaled,k6_large_clipboard_R_H.png,large,c,1,1231,5,5,k6_large_clipboard_R_H.png,189835,464666,47,Man
390396,Gabor-Discrimination,v2,jsons/s1_even.json,0.7534099292337737,1536,695,1536,864,2-6-2024,19-13-2,2,6,c2,c2_large_flashdrive_R,c2_large_flashdrive_R,flashdrive,R,V,classroom,1,misscaled,c2_large_flashdrive_R_V.png,large,m,1,1869,6,7,c2_large_flashdrive_R_V.png,189835,464666,47,Man
390396,Gabor-Discrimination,v2,jsons/s1_even.json,-0.6003453341235104,1536,695,1536,864,2-6-2024,19-13-2,2,7,k10,k10_large_eraser_L,k10_large_eraser_L,eraser,L,V,classroom,0,misscaled,k10_large_eraser_L_V.png,large,m,1,1244,7,7,k10_large_eraser_L_V.png,189835,464666,47,Man
390396,Gabor-Discrimination,v2,jsons/s1_even.json,-1.2393178184281484,1536,695,1536,864,2-6-2024,19-13-2,2,8,c0,c0_large_sponge_R,c0_large_sponge_R,sponge,R,H,kitchen,0,misscaled,c0_large_sponge_R_H.png,large,c,1,949,8,7,c0_large_sponge_R_H.png,189835,464666,47,Man
390396,Gabor-Discrimination,v2,jsons/s1_even.json,1.9858687209942452,1536,695,1536,864,2-6-2024,19-13-2,2,9,c6,c6_large_laptop_R,c6_large_laptop_R,laptop,R,H,classroom,1,scaled,c6_large_laptop_R_H.png,large,c,1,2438,9,4,c6_large_laptop_R_H.png,189835,464666,47,Man
390396,Gabor-Discrimination,v2,jsons/s1_even.json,-0.3425903319802835,1536,695,1536,864,2-6-2024,19-13-2,2,10,c10,c10_large_notebook_R,c10_large_notebook_R,notebook,R,H,classroom,1,scaled,c10_large_notebook_R_H.png,large,c,1,1363,10,7,c10_large_notebook_R_H.png,189835,464666,47,Man
390396,Gabor-Discrimination,v2,jsons/s1_even.json,-0.4682188204198395,1536,695,1536,864,2-6-2024,19-13-2,2,11,k4,k4_large_toaster_L,k4_large_toaster_L,toaster,L,V,kitchen,1,scaled,k4_large_toaster_L_V.png,large,m,1,1305,11,5,k4_large_toaster_L_V.png,189835,464666,47,Man
569628,Gabor-Discrimination,v2,jsons/s0_odd.json,1.9814346672455516,1920,911,1920,1080,2-6-2024,12-6-31,1,0,c11,c11_large_pot_R,c11_large_pot_R,pot,R,H,kitchen,0,scaled,c11_large_pot_R_H.png,large,c,1,2961,0,4,c11_large_pot_R_H.png,121595,266423,30,Woman
569628,Gabor-Discrimination,v2,jsons/s0_odd.json,-0.0396952216493512,1920,911,1920,1080,2-6-2024,12-6-31,1,1,k3,k3_large_toaster_L,k3_large_toaster_L,toaster,L,V,kitchen,1,scaled,k3_large_toaster_L_V.png,large,m,1,1442,1,4,k3_large_toaster_L_V.png,121595,266423,30,Woman
569628,Gabor-Discrimination,v2,jsons/s0_odd.json,2.147755428346186,1920,911,1920,1080,2-6-2024,12-6-31,1,2,k11,k11_large_sponge_R,k11_large_sponge_R,sponge,R,H,kitchen,1,misscaled,k11_large_sponge_R_H.png,large,c,1,3086,2,4,k11_large_sponge_R_H.png,121595,266423,30,Woman
569628,Gabor-Discrimination,v2,jsons/s0_odd.json,-0.04102578773815626,1920,911,1920,1080,2-6-2024,12-6-31,1,3,k9,k9_large_eraser_L,k9_large_eraser_L,eraser,L,H,classroom,0,misscaled,k9_large_eraser_L_H.png,large,c,1,1441,3,5,k9_large_eraser_L_H.png,121595,266423,30,Woman
569628,Gabor-Discrimination,v2,jsons/s0_odd.json,-0.3710061777618139,1920,911,1920,1080,2-6-2024,12-6-31,1,4,k7,k7_large_spoon_L,k7_large_spoon_L,spoon,L,V,kitchen,1,misscaled,k7_large_spoon_L_V.png,large,m,1,1193,4,5,k7_large_spoon_L_V.png,121595,266423,30,Woman
569628,Gabor-Discrimination,v2,jsons/s0_odd.json,-0.09158729911274896,1920,911,1920,1080,2-6-2024,12-6-31,1,5,c7,c7_large_kettle_R,c7_large_kettle_R,kettle,R,V,kitchen,0,scaled,c7_large_kettle_R_V.png,large,m,1,1403,5,4,c7_large_kettle_R_V.png,121595,266423,30,Woman
569628,Gabor-Discrimination,v2,jsons/s0_odd.json,-0.4907571257542704,1920,911,1920,1080,2-6-2024,12-6-31,1,6,c9,c9_large_notebook_R,c9_large_notebook_R,notebook,R,H,classroom,1,scaled,c9_large_notebook_R_H.png,large,c,1,1103,6,4,c9_large_notebook_R_H.png,121595,266423,30,Woman
569628,Gabor-Discrimination,v2,jsons/s0_odd.json,-0.4747903326886095,1920,911,1920,1080,2-6-2024,12-6-31,1,7,c3,c3_large_saltshaker_R,c3_large_saltshaker_R,saltshaker,R,V,kitchen,0,misscaled,c3_large_saltshaker_R_V.png,large,m,1,1115,7,6,c3_large_saltshaker_R_V.png,121595,266423,30,Woman
569628,Gabor-Discrimination,v2,jsons/s0_odd.json,-0.4920876918430754,1920,911,1920,1080,2-6-2024,12-6-31,1,8,c5,c5_large_laptop_L,c5_large_laptop_L,laptop,L,V,classroom,1,scaled,c5_large_laptop_L_V.png,large,m,1,1102,8,4,c5_large_laptop_L_V.png,121595,266423,30,Woman
569628,Gabor-Discrimination,v2,jsons/s0_odd.json,-0.8074318548898773,1920,911,1920,1080,2-6-2024,12-6-31,1,9,k1,k1_large_binderclip_L,k1_large_binderclip_L,binderclip,L,V,classroom,0,misscaled,k1_large_binderclip_L_V.png,large,m,1,865,9,7,k1_large_binderclip_L_V.png,121595,266423,30,Woman
569628,Gabor-Discrimination,v2,jsons/s0_odd.json,-0.4614846718005588,1920,911,1920,1080,2-6-2024,12-6-31,1,10,c1,c1_large_flashdrive_R,c1_large_flashdrive_R,flashdrive,R,H,classroom,1,misscaled,c1_large_flashdrive_R_H.png,large,c,1,1125,10,7,c1_large_flashdrive_R_H.png,121595,266423,30,Woman
569628,Gabor-Discrimination,v2,jsons/s0_odd.json,-0.8593239323532751,1920,911,1920,1080,2-6-2024,12-6-31,1,11,k5,k5_large_clipboard_L,k5_large_clipboard_L,clipboard,L,H,classroom,0,scaled,k5_large_clipboard_L_H.png,large,c,1,826,11,4,k5_large_clipboard_L_H.png,121595,266423,30,Woman
177433,Gabor-Discrimination,v2,jsons/s4_even.json,0.08571598914767314,1366,768,1366,768,2-5-2024,17-28-49,1,0,k0,k0_large_laptop_R,k0_large_laptop_R,laptop,R,H,classroom,0,scaled,k0_large_laptop_R_H.png,large,c,1,1629,0,4,k0_large_laptop_R_H.png,148230,291856,28,Man
177433,Gabor-Discrimination,v2,jsons/s4_even.json,-0.7140204768364843,1366,768,1366,768,2-5-2024,17-28-49,1,1,k4,k4_large_notebook_L,k4_large_notebook_L,notebook,L,H,classroom,0,scaled,k4_large_notebook_L_H.png,large,c,1,993,1,5,k4_large_notebook_L_H.png,148230,291856,28,Man
177433,Gabor-Discrimination,v2,jsons/s4_even.json,-0.776892840514484,1366,768,1366,768,2-5-2024,17-28-49,1,2,c0,c0_large_clipboard_L,c0_large_clipboard_L,clipboard,L,V,classroom,1,scaled,c0_large_clipboard_L_V.png,large,m,1,943,2,4,c0_large_clipboard_L_V.png,148230,291856,28,Man
177433,Gabor-Discrimination,v2,jsons/s4_even.json,-0.3154096911179655,1366,768,1366,768,2-5-2024,17-28-49,1,3,k8,k8_large_binderclip_L,k8_large_binderclip_L,binderclip,L,H,classroom,0,misscaled,k8_large_binderclip_L_H.png,large,c,1,1310,3,7,k8_large_binderclip_L_H.png,148230,291856,28,Man
177433,Gabor-Discrimination,v2,jsons/s4_even.json,2.726355263623665,1366,768,1366,768,2-5-2024,17-28-49,1,4,c8,c8_large_flashdrive_R,c8_large_flashdrive_R,flashdrive,R,H,classroom,1,misscaled,c8_large_flashdrive_R_H.png,large,c,1,3729,4,7,c8_large_flashdrive_R_H.png,148230,291856,28,Man
177433,Gabor-Discrimination,v2,jsons/s4_even.json,-0.7027034513744442,1366,768,1366,768,2-5-2024,17-28-49,1,5,c10,c10_large_saltshaker_L,c10_large_saltshaker_L,saltshaker,L,V,kitchen,0,misscaled,c10_large_saltshaker_L_V.png,large,m,1,1002,5,7,c10_large_saltshaker_L_V.png,148230,291856,28,Man
177433,Gabor-Discrimination,v2,jsons/s4_even.json,0.445345909385832,1366,768,1366,768,2-5-2024,17-28-49,1,6,c6,c6_large_sponge_R,c6_large_sponge_R,sponge,R,H,kitchen,0,misscaled,c6_large_sponge_R_H.png,large,c,1,1915,6,7,c6_large_sponge_R_H.png,148230,291856,28,Man
177433,Gabor-Discrimination,v2,jsons/s4_even.json,-0.37325226570172537,1366,768,1366,768,2-5-2024,17-28-49,1,7,k10,k10_large_toaster_L,k10_large_toaster_L,toaster,L,V,kitchen,1,scaled,k10_large_toaster_L_V.png,large,m,1,1264,7,4,k10_large_toaster_L_V.png,148230,291856,28,Man
177433,Gabor-Discrimination,v2,jsons/s4_even.json,0.8376694587365506,1366,768,1366,768,2-5-2024,17-28-49,1,8,c2,c2_large_spoon_R,c2_large_spoon_R,spoon,R,V,kitchen,0,misscaled,c2_large_spoon_R_V.png,large,m,1,2227,8,7,c2_large_spoon_R_V.png,148230,291856,28,Man
177433,Gabor-Discrimination,v2,jsons/s4_even.json,-0.7077332404686842,1366,768,1366,768,2-5-2024,17-28-49,1,9,c4,c4_large_eraser_R,c4_large_eraser_R,eraser,R,V,classroom,1,misscaled,c4_large_eraser_R_V.png,large,m,1,998,9,7,c4_large_eraser_R_V.png,148230,291856,28,Man
177433,Gabor-Discrimination,v2,jsons/s4_even.json,0.05176491276155326,1366,768,1366,768,2-5-2024,17-28-49,1,10,k6,k6_large_pot_R,k6_large_pot_R,pot,R,V,kitchen,1,scaled,k6_large_pot_R_V.png,large,m,1,1602,10,4,k6_large_pot_R_V.png,148230,291856,28,Man
177433,Gabor-Discrimination,v2,jsons/s4_even.json,-0.5568395676414848,1366,768,1366,768,2-5-2024,17-28-49,1,11,k2,k2_large_kettle_L,k2_large_kettle_L,kettle,L,H,kitchen,1,scaled,k2_large_kettle_L_H.png,large,c,1,1118,11,4,k2_large_kettle_L_H.png,148230,291856,28,Man
376176,Gabor-Discrimination,v2,jsons/s8_odd.json,2.5384877681533045,1536,695,1536,864,2-6-2024,17-10-45,2,0,k7,k7_large_saltshaker_R,k7_large_saltshaker_R,saltshaker,R,V,kitchen,1,misscaled,k7_large_saltshaker_R_V.png,large,m,1,3511,0,7,k7_large_saltshaker_R_V.png,163170,496942,48,Donna
376176,Gabor-Discrimination,v2,jsons/s8_odd.json,0.2431977791867153,1536,695,1536,864,2-6-2024,17-10-45,2,1,c9,c9_large_clipboard_R,c9_large_clipboard_R,clipboard,R,V,classroom,1,scaled,c9_large_clipboard_R_V.png,large,m,1,1787,1,4,c9_large_clipboard_R_V.png,163170,496942,48,Donna
376176,Gabor-Discrimination,v2,jsons/s8_odd.json,0.0940838123861016,1536,695,1536,864,2-6-2024,17-10-45,2,2,k9,k9_large_laptop_L,k9_large_laptop_L,laptop,L,H,classroom,0,scaled,k9_large_laptop_L_H.png,large,c,1,1675,2,4,k9_large_laptop_L_H.png,163170,496942,48,Donna
376176,Gabor-Discrimination,v2,jsons/s8_odd.json,-0.4358033196375077,1536,695,1536,864,2-6-2024,17-10-45,2,3,k1,k1_large_eraser_R,k1_large_eraser_R,eraser,R,V,classroom,0,misscaled,k1_large_eraser_R_V.png,large,m,1,1277,3,7,k1_large_eraser_R_V.png,163170,496942,48,Donna
376176,Gabor-Discrimination,v2,jsons/s8_odd.json,-0.433140570230354,1536,695,1536,864,2-6-2024,17-10-45,2,4,c3,c3_large_pot_L,c3_large_pot_L,pot,L,H,kitchen,0,scaled,c3_large_pot_L_H.png,large,c,1,1279,4,4,c3_large_pot_L_H.png,163170,496942,48,Donna
376176,Gabor-Discrimination,v2,jsons/s8_odd.json,-0.5383191718129297,1536,695,1536,864,2-6-2024,17-10-45,2,5,c7,c7_large_toaster_L,c7_large_toaster_L,toaster,L,H,kitchen,0,scaled,c7_large_toaster_L_H.png,large,c,1,1200,5,5,c7_large_toaster_L_H.png,163170,496942,48,Donna
376176,Gabor-Discrimination,v2,jsons/s8_odd.json,-0.0017751662714357765,1536,695,1536,864,2-6-2024,17-10-45,2,6,c11,c11_large_spoon_L,c11_large_spoon_L,spoon,L,H,kitchen,0,misscaled,c11_large_spoon_L_H.png,large,c,1,1603,6,7,c11_large_spoon_L_H.png,163170,496942,48,Donna
376176,Gabor-Discrimination,v2,jsons/s8_odd.json,-1.0335905615435397,1536,695,1536,864,2-6-2024,17-10-45,2,7,c1,c1_large_notebook_L,c1_large_notebook_L,notebook,L,V,classroom,1,scaled,c1_large_notebook_L_V.png,large,m,1,828,7,4,c1_large_notebook_L_V.png,163170,496942,48,Donna
376176,Gabor-Discrimination,v2,jsons/s8_odd.json,1.3043034179375108,1536,695,1536,864,2-6-2024,17-10-45,2,8,k5,k5_large_flashdrive_R,k5_large_flashdrive_R,flashdrive,R,H,classroom,0,misscaled,k5_large_flashdrive_R_H.png,large,c,1,2584,8,7,k5_large_flashdrive_R_H.png,163170,496942,48,Donna
376176,Gabor-Discrimination,v2,jsons/s8_odd.json,-0.5183485512592759,1536,695,1536,864,2-6-2024,17-10-45,2,9,k11,k11_large_kettle_L,k11_large_kettle_L,kettle,L,H,kitchen,1,scaled,k11_large_kettle_L_H.png,large,c,1,1215,9,4,k11_large_kettle_L_H.png,163170,496942,48,Donna
376176,Gabor-Discrimination,v2,jsons/s8_odd.json,-0.4690876872269305,1536,695,1536,864,2-6-2024,17-10-45,2,10,k3,k3_large_sponge_R,k3_large_sponge_R,sponge,R,V,kitchen,1,misscaled,k3_large_sponge_R_V.png,large,m,1,1252,10,7,k3_large_sponge_R_V.png,163170,496942,48,Donna
376176,Gabor-Discrimination,v2,jsons/s8_odd.json,-0.7500077496816581,1536,695,1536,864,2-6-2024,17-10-45,2,11,c5,c5_large_binderclip_R,c5_large_binderclip_R,binderclip,R,V,classroom,1,misscaled,c5_large_binderclip_R_V.png,large,m,1,1041,11,7,c5_large_binderclip_R_V.png,163170,496942,48,Donna
847947,Gabor-Discrimination,v2,jsons/s5_odd.json,1.6720678913070113,2560,1279,2560,1440,2-5-2024,23-56-50,2,0,k5,k5_large_kettle_R,k5_large_kettle_R,kettle,R,V,kitchen,1,scaled,k5_large_kettle_R_V.png,large,m,1,2131,0,5,k5_large_kettle_R_V.png,122290,285624,38,Woman
847947,Gabor-Discrimination,v2,jsons/s5_odd.json,-0.44735659357414825,2560,1279,2560,1440,2-5-2024,23-56-50,2,1,k7,k7_large_notebook_R,k7_large_notebook_R,notebook,R,V,classroom,0,scaled,k7_large_notebook_R_V.png,large,m,1,1219,1,5,k7_large_notebook_R_V.png,122290,285624,38,Woman
847947,Gabor-Discrimination,v2,jsons/s5_odd.json,-1.1236203272368863,2560,1279,2560,1440,2-5-2024,23-56-50,2,2,k3,k3_large_laptop_L,k3_large_laptop_L,laptop,L,H,classroom,0,scaled,k3_large_laptop_L_H.png,large,c,1,928,2,4,k3_large_laptop_L_H.png,122290,285624,38,Woman
847947,Gabor-Discrimination,v2,jsons/s5_odd.json,0.3451036579000572,2560,1279,2560,1440,2-5-2024,23-56-50,2,3,c5,c5_large_spoon_R,c5_large_spoon_R,spoon,R,V,kitchen,0,misscaled,c5_large_spoon_R_V.png,large,m,1,1560,3,6,c5_large_spoon_R_V.png,122290,285624,38,Woman
847947,Gabor-Discrimination,v2,jsons/s5_odd.json,-0.6286231613600369,2560,1279,2560,1440,2-5-2024,23-56-50,2,4,c1,c1_large_toaster_L,c1_large_toaster_L,toaster,L,H,kitchen,0,scaled,c1_large_toaster_L_H.png,large,c,1,1141,4,4,c1_large_toaster_L_H.png,122290,285624,38,Woman
847947,Gabor-Discrimination,v2,jsons/s5_odd.json,-0.5984120667290554,2560,1279,2560,1440,2-5-2024,23-56-50,2,5,c9,c9_large_sponge_R,c9_large_sponge_R,sponge,R,V,kitchen,0,misscaled,c9_large_sponge_R_V.png,large,m,1,1154,5,7,c9_large_sponge_R_V.png,122290,285624,38,Woman
847947,Gabor-Discrimination,v2,jsons/s5_odd.json,0.0639080847963069,2560,1279,2560,1440,2-5-2024,23-56-50,2,6,k9,k9_large_pot_L,k9_large_pot_L,pot,L,V,kitchen,1,scaled,k9_large_pot_L_V.png,large,m,1,1439,6,4,k9_large_pot_L_V.png,122290,285624,38,Woman
847947,Gabor-Discrimination,v2,jsons/s5_odd.json,-0.5426377381795513,2560,1279,2560,1440,2-5-2024,23-56-50,2,7,c3,c3_large_clipboard_L,c3_large_clipboard_L,clipboard,L,H,classroom,1,scaled,c3_large_clipboard_L_H.png,large,c,1,1178,7,5,c3_large_clipboard_L_H.png,122290,285624,38,Woman
847947,Gabor-Discrimination,v2,jsons/s5_odd.json,0.7308760970341279,2560,1279,2560,1440,2-5-2024,23-56-50,2,8,c7,c7_large_eraser_R,c7_large_eraser_R,eraser,R,H,classroom,1,misscaled,c7_large_eraser_R_H.png,large,c,1,1726,8,6,c7_large_eraser_R_H.png,122290,285624,38,Woman
847947,Gabor-Discrimination,v2,jsons/s5_odd.json,-0.7866504255836321,2560,1279,2560,1440,2-5-2024,23-56-50,2,9,k1,k1_large_saltshaker_R,k1_large_saltshaker_R,saltshaker,R,V,kitchen,1,misscaled,k1_large_saltshaker_R_V.png,large,m,1,1073,9,7,k1_large_saltshaker_R_V.png,122290,285624,38,Woman
847947,Gabor-Discrimination,v2,jsons/s5_odd.json,1.990446350110431,2560,1279,2560,1440,2-5-2024,23-56-50,2,10,k11,k11_large_binderclip_L,k11_large_binderclip_L,binderclip,L,H,classroom,0,misscaled,k11_large_binderclip_L_H.png,large,c,1,2268,10,7,k11_large_binderclip_L_H.png,122290,285624,38,Woman
847947,Gabor-Discrimination,v2,jsons/s5_odd.json,-0.6751017684846238,2560,1279,2560,1440,2-5-2024,23-56-50,2,11,c11,c11_large_flashdrive_L,c11_large_flashdrive_L,flashdrive,L,H,classroom,1,misscaled,c11_large_flashdrive_L_H.png,large,c,1,1121,11,7,c11_large_flashdrive_L_H.png,122290,285624,38,Woman
796808,Gabor-Discrimination,v2,jsons/s9_odd.json,1.0496998997142717,1440,729,1440,900,2-6-2024,12-6-38,1,0,c11,c11_large_clipboard_R,c11_large_clipboard_R,clipboard,R,V,classroom,1,scaled,c11_large_clipboard_R_V.png,large,m,1,2610,0,4,c11_large_clipboard_R_V.png,193468,479986,40,Woman
796808,Gabor-Discrimination,v2,jsons/s9_odd.json,0.27972929207644626,1440,729,1440,900,2-6-2024,12-6-38,1,1,k11,k11_large_laptop_L,k11_large_laptop_L,laptop,L,V,classroom,0,scaled,k11_large_laptop_L_V.png,large,m,1,1937,1,4,k11_large_laptop_L_V.png,193468,479986,40,Woman
796808,Gabor-Discrimination,v2,jsons/s9_odd.json,-0.5325725376751973,1440,729,1440,900,2-6-2024,12-6-38,1,2,c5,c5_large_pot_R,c5_large_pot_R,pot,R,H,kitchen,0,scaled,c5_large_pot_R_H.png,large,c,1,1227,2,5,c5_large_pot_R_H.png,193468,479986,40,Woman
796808,Gabor-Discrimination,v2,jsons/s9_odd.json,0.5119789701603669,1440,729,1440,900,2-6-2024,12-6-38,1,3,k9,k9_large_saltshaker_R,k9_large_saltshaker_R,saltshaker,R,H,kitchen,1,misscaled,k9_large_saltshaker_R_H.png,large,c,1,2140,3,6,k9_large_saltshaker_R_H.png,193468,479986,40,Woman
796808,Gabor-Discrimination,v2,jsons/s9_odd.json,-0.6790156844473245,1440,729,1440,900,2-6-2024,12-6-38,1,4,k5,k5_large_sponge_R,k5_large_sponge_R,sponge,R,H,kitchen,1,misscaled,k5_large_sponge_R_H.png,large,c,1,1099,4,7,k5_large_sponge_R_H.png,193468,479986,40,Woman
796808,Gabor-Discrimination,v2,jsons/s9_odd.json,-0.4593509642891336,1440,729,1440,900,2-6-2024,12-6-38,1,5,c1,c1_large_kettle_R,c1_large_kettle_R,kettle,R,H,kitchen,0,scaled,c1_large_kettle_R_H.png,large,c,1,1291,5,5,c1_large_kettle_R_H.png,193468,479986,40,Woman
796808,Gabor-Discrimination,v2,jsons/s9_odd.json,-0.6092263723137327,1440,729,1440,900,2-6-2024,12-6-38,1,6,c9,c9_large_toaster_L,c9_large_toaster_L,toaster,L,V,kitchen,0,scaled,c9_large_toaster_L_V.png,large,m,1,1160,6,6,c9_large_toaster_L_V.png,193468,479986,40,Woman
796808,Gabor-Discrimination,v2,jsons/s9_odd.json,2.5965056374948663,1440,729,1440,900,2-6-2024,12-6-38,1,7,c7,c7_large_binderclip_L,c7_large_binderclip_L,binderclip,L,V,classroom,1,misscaled,c7_large_binderclip_L_V.png,large,m,1,3962,7,7,c7_large_binderclip_L_V.png,193468,479986,40,Woman
796808,Gabor-Discrimination,v2,jsons/s9_odd.json,-0.4353251355218315,1440,729,1440,900,2-6-2024,12-6-38,1,8,k1,k1_large_spoon_L,k1_large_spoon_L,spoon,L,V,kitchen,1,misscaled,k1_large_spoon_L_V.png,large,m,1,1312,8,6,k1_large_spoon_L_V.png,193468,479986,40,Woman
796808,Gabor-Discrimination,v2,jsons/s9_odd.json,-0.8197383957986656,1440,729,1440,900,2-6-2024,12-6-38,1,9,k7,k7_large_flashdrive_L,k7_large_flashdrive_L,flashdrive,L,V,classroom,0,misscaled,k7_large_flashdrive_L_V.png,large,m,1,976,9,7,k7_large_flashdrive_L_V.png,193468,479986,40,Woman
796808,Gabor-Discrimination,v2,jsons/s9_odd.json,-0.11955710029443205,1440,729,1440,900,2-6-2024,12-6-38,1,11,c3,c3_large_notebook_L,c3_large_notebook_L,notebook,L,H,classroom,1,scaled,c3_large_notebook_L_H.png,large,c,1,1588,11,5,c3_large_notebook_L_H.png,193468,479986,40,Woman
232153,Gabor-Discrimination,v2,jsons/s8_even.json,1.9173248716874531,2560,1305,2560,1440,2-6-2024,13-7-20,2,0,k6,k6_large_saltshaker_L,k6_large_saltshaker_L,saltshaker,L,V,kitchen,1,misscaled,k6_large_saltshaker_L_V.png,large,m,1,3106,0,5,k6_large_saltshaker_L_V.png,123384,306658,29,Man
232153,Gabor-Discrimination,v2,jsons/s8_even.json,1.00433574258936,2560,1305,2560,1440,2-6-2024,13-7-20,2,1,c6,c6_large_toaster_L,c6_large_toaster_L,toaster,L,H,kitchen,0,scaled,c6_large_toaster_L_H.png,large,c,1,2468,1,5,c6_large_toaster_L_H.png,123384,306658,29,Man
232153,Gabor-Discrimination,v2,jsons/s8_even.json,0.19294885199591355,2560,1305,2560,1440,2-6-2024,13-7-20,2,2,k8,k8_large_laptop_R,k8_large_laptop_R,laptop,R,H,classroom,0,scaled,k8_large_laptop_R_H.png,large,c,1,1901,2,4,k8_large_laptop_R_H.png,123384,306658,29,Man
232153,Gabor-Discrimination,v2,jsons/s8_even.json,-0.8889003354620152,2560,1305,2560,1440,2-6-2024,13-7-20,2,3,k0,k0_large_eraser_R,k0_large_eraser_R,eraser,R,H,classroom,0,misscaled,k0_large_eraser_R_H.png,large,c,1,1145,3,6,k0_large_eraser_R_H.png,123384,306658,29,Man
232153,Gabor-Discrimination,v2,jsons/s8_even.json,-0.8016082713946426,2560,1305,2560,1440,2-6-2024,13-7-20,2,4,c0,c0_large_notebook_L,c0_large_notebook_L,notebook,L,V,classroom,1,scaled,c0_large_notebook_L_V.png,large,m,1,1206,4,4,c0_large_notebook_L_V.png,123384,306658,29,Man
232153,Gabor-Discrimination,v2,jsons/s8_even.json,1.3950035047269451,2560,1305,2560,1440,2-6-2024,13-7-20,2,5,c8,c8_large_clipboard_R,c8_large_clipboard_R,clipboard,R,V,classroom,1,scaled,c8_large_clipboard_R_V.png,large,m,1,2741,5,4,c8_large_clipboard_R_V.png,123384,306658,29,Man
232153,Gabor-Discrimination,v2,jsons/s8_even.json,-0.9847785041917524,2560,1305,2560,1440,2-6-2024,13-7-20,2,6,k4,k4_large_flashdrive_L,k4_large_flashdrive_L,flashdrive,L,H,classroom,0,misscaled,k4_large_flashdrive_L_H.png,large,c,1,1078,6,7,k4_large_flashdrive_L_H.png,123384,306658,29,Man
232153,Gabor-Discrimination,v2,jsons/s8_even.json,0.39042925923029737,2560,1305,2560,1440,2-6-2024,13-7-20,2,7,c2,c2_large_pot_R,c2_large_pot_R,pot,R,H,kitchen,0,scaled,c2_large_pot_R_H.png,large,c,1,2039,7,4,c2_large_pot_R_H.png,123384,306658,29,Man
232153,Gabor-Discrimination,v2,jsons/s8_even.json,-1.11357007412722,2560,1305,2560,1440,2-6-2024,13-7-20,2,8,k10,k10_large_kettle_R,k10_large_kettle_R,kettle,R,H,kitchen,1,scaled,k10_large_kettle_R_H.png,large,c,1,988,8,4,k10_large_kettle_R_H.png,123384,306658,29,Man
232153,Gabor-Discrimination,v2,jsons/s8_even.json,-0.15621940427357667,2560,1305,2560,1440,2-6-2024,13-7-20,2,9,c4,c4_large_binderclip_R,c4_large_binderclip_R,binderclip,R,V,classroom,1,misscaled,c4_large_binderclip_R_V.png,large,m,1,1657,9,7,c4_large_binderclip_R_V.png,123384,306658,29,Man
232153,Gabor-Discrimination,v2,jsons/s8_even.json,-0.3093382707524105,2560,1305,2560,1440,2-6-2024,13-7-20,2,10,c10,c10_large_spoon_L,c10_large_spoon_L,spoon,L,V,kitchen,0,misscaled,c10_large_spoon_L_V.png,large,m,1,1550,10,7,c10_large_spoon_L_V.png,123384,306658,29,Man
232153,Gabor-Discrimination,v2,jsons/s8_even.json,-0.6456273700283539,2560,1305,2560,1440,2-6-2024,13-7-20,2,11,k2,k2_large_sponge_L,k2_large_sponge_L,sponge,L,V,kitchen,1,misscaled,k2_large_sponge_L_V.png,large,m,1,1315,11,7,k2_large_sponge_L_V.png,123384,306658,29,Man
992898,Gabor-Discrimination,v2,jsons/s11_even.json,1.5509704921294512,1349,599,1366,768,2-5-2024,19-56-27,1,0,k8,k8_large_sponge_L,k8_large_sponge_L,sponge,L,V,kitchen,1,misscaled,k8_large_sponge_L_V.png,large,m,1,1390,0,6,k8_large_sponge_L_V.png,125239,306840,27,Man
992898,Gabor-Discrimination,v2,jsons/s11_even.json,0.29830084689216146,1349,599,1366,768,2-5-2024,19-56-27,1,1,c8,c8_large_pot_L,c8_large_pot_L,pot,L,V,kitchen,0,scaled,c8_large_pot_L_V.png,large,m,1,1067,1,5,c8_large_pot_L_V.png,125239,306840,27,Man
992898,Gabor-Discrimination,v2,jsons/s11_even.json,-1.1909410842877743,1349,599,1366,768,2-5-2024,19-56-27,1,2,k2,k2_large_clipboard_R,k2_large_clipboard_R,clipboard,R,H,classroom,0,scaled,k2_large_clipboard_R_H.png,large,c,1,683,2,5,k2_large_clipboard_R_H.png,125239,306840,27,Man
992898,Gabor-Discrimination,v2,jsons/s11_even.json,-0.7527006201645119,1349,599,1366,768,2-5-2024,19-56-27,1,3,c4,c4_large_kettle_R,c4_large_kettle_R,kettle,R,H,kitchen,0,scaled,c4_large_kettle_R_H.png,large,c,1,796,3,4,c4_large_kettle_R_H.png,125239,306840,27,Man
992898,Gabor-Discrimination,v2,jsons/s11_even.json,-0.9349776273662228,1349,599,1366,768,2-5-2024,19-56-27,1,4,c0,c0_large_saltshaker_R,c0_large_saltshaker_R,saltshaker,R,H,kitchen,0,misscaled,c0_large_saltshaker_R_H.png,large,c,1,749,4,6,c0_large_saltshaker_R_H.png,125239,306840,27,Man
992898,Gabor-Discrimination,v2,jsons/s11_even.json,0.3758655308077831,1349,599,1366,768,2-5-2024,19-56-27,1,5,k6,k6_large_eraser_R,k6_large_eraser_R,eraser,R,V,classroom,0,misscaled,k6_large_eraser_R_V.png,large,m,1,1087,5,4,k6_large_eraser_R_V.png,125239,306840,27,Man
992898,Gabor-Discrimination,v2,jsons/s11_even.json,2.074532108559897,1349,599,1366,768,2-5-2024,19-56-27,1,6,c10,c10_large_binderclip_L,c10_large_binderclip_L,binderclip,L,V,classroom,1,misscaled,c10_large_binderclip_L_V.png,large,m,1,1525,6,7,c10_large_binderclip_L_V.png,125239,306840,27,Man
992898,Gabor-Discrimination,v2,jsons/s11_even.json,-0.6751359362488902,1349,599,1366,768,2-5-2024,19-56-27,1,7,k4,k4_large_spoon_L,k4_large_spoon_L,spoon,L,V,kitchen,1,misscaled,k4_large_spoon_L_V.png,large,m,1,816,7,7,k4_large_spoon_L_V.png,125239,306840,27,Man
992898,Gabor-Discrimination,v2,jsons/s11_even.json,-0.37263366897796585,1349,599,1366,768,2-5-2024,19-56-27,1,8,c6,c6_large_notebook_R,c6_large_notebook_R,notebook,R,H,classroom,1,scaled,c6_large_notebook_R_H.png,large,c,1,894,8,5,c6_large_notebook_R_H.png,125239,306840,27,Man
992898,Gabor-Discrimination,v2,jsons/s11_even.json,0.4728213857023102,1349,599,1366,768,2-5-2024,19-56-27,1,9,k0,k0_large_toaster_R,k0_large_toaster_R,toaster,R,V,kitchen,1,scaled,k0_large_toaster_R_V.png,large,m,1,1112,9,4,k0_large_toaster_R_V.png,125239,306840,27,Man
992898,Gabor-Discrimination,v2,jsons/s11_even.json,-0.5355195052007713,1349,599,1366,768,2-5-2024,19-56-27,1,10,c2,c2_large_laptop_L,c2_large_laptop_L,laptop,L,H,classroom,1,scaled,c2_large_laptop_L_H.png,large,c,1,852,10,4,c2_large_laptop_L_H.png,125239,306840,27,Man
992898,Gabor-Discrimination,v2,jsons/s11_even.json,-0.3105819218454685,1349,599,1366,768,2-5-2024,19-56-27,1,11,k10,k10_large_flashdrive_L,k10_large_flashdrive_L,flashdrive,L,H,classroom,0,misscaled,k10_large_flashdrive_L_H.png,large,c,1,910,11,7,k10_large_flashdrive_L_H.png,125239,306840,27,Man
731908,Gabor-Discrimination,v2,jsons/s4_odd.json,1.1153389994886356,1920,919,1920,1080,2-5-2024,23-52-1,1,0,k11,k11_large_toaster_L,k11_large_toaster_L,toaster,L,V,kitchen,1,scaled,k11_large_toaster_L_V.png,large,m,1,1918,0,4,k11_large_toaster_L_V.png,131191,358150,20,Man
731908,Gabor-Discrimination,v2,jsons/s4_odd.json,1.9326699362455335,1920,919,1920,1080,2-5-2024,23-52-1,1,1,k1,k1_large_laptop_R,k1_large_laptop_R,laptop,R,H,classroom,0,scaled,k1_large_laptop_R_H.png,large,c,1,2291,1,4,k1_large_laptop_R_H.png,131191,358150,20,Man
731908,Gabor-Discrimination,v2,jsons/s4_odd.json,0.31992042028554185,1920,919,1920,1080,2-5-2024,23-52-1,1,2,c11,c11_large_saltshaker_R,c11_large_saltshaker_R,saltshaker,R,V,kitchen,0,misscaled,c11_large_saltshaker_R_V.png,large,m,1,1555,2,4,c11_large_saltshaker_R_V.png,131191,358150,20,Man
731908,Gabor-Discrimination,v2,jsons/s4_odd.json,-0.9225102530151584,1920,919,1920,1080,2-5-2024,23-52-1,1,3,c1,c1_large_clipboard_R,c1_large_clipboard_R,clipboard,R,V,classroom,1,scaled,c1_large_clipboard_R_V.png,large,m,1,988,3,5,c1_large_clipboard_R_V.png,131191,358150,20,Man
731908,Gabor-Discrimination,v2,jsons/s4_odd.json,-0.186255039207336,1920,919,1920,1080,2-5-2024,23-52-1,1,4,k3,k3_large_kettle_R,k3_large_kettle_R,kettle,R,H,kitchen,1,scaled,k3_large_kettle_R_H.png,large,c,1,1324,4,4,k3_large_kettle_R_H.png,131191,358150,20,Man
731908,Gabor-Discrimination,v2,jsons/s4_odd.json,-1.1438250643085812,1920,919,1920,1080,2-5-2024,23-52-1,1,5,c5,c5_large_eraser_L,c5_large_eraser_L,eraser,L,H,classroom,1,misscaled,c5_large_eraser_L_H.png,large,c,1,887,5,7,c5_large_eraser_L_H.png,131191,358150,20,Man
731908,Gabor-Discrimination,v2,jsons/s4_odd.json,-0.6398408405710837,1920,919,1920,1080,2-5-2024,23-52-1,1,6,k7,k7_large_pot_L,k7_large_pot_L,pot,L,H,kitchen,1,scaled,k7_large_pot_L_H.png,large,c,1,1117,6,4,k7_large_pot_L_H.png,131191,358150,20,Man
731908,Gabor-Discrimination,v2,jsons/s4_odd.json,-1.2884466241636892,1920,919,1920,1080,2-5-2024,23-52-1,1,7,c3,c3_large_spoon_R,c3_large_spoon_R,spoon,R,V,kitchen,0,misscaled,c3_large_spoon_R_V.png,large,m,1,821,7,7,c3_large_spoon_R_V.png,131191,358150,20,Man
731908,Gabor-Discrimination,v2,jsons/s4_odd.json,0.35059772086086777,1920,919,1920,1080,2-5-2024,23-52-1,1,9,k9,k9_large_binderclip_L,k9_large_binderclip_L,binderclip,L,V,classroom,0,misscaled,k9_large_binderclip_L_V.png,large,m,1,1569,9,7,k9_large_binderclip_L_V.png,131191,358150,20,Man
731908,Gabor-Discrimination,v2,jsons/s4_odd.json,-0.6157372472618989,1920,919,1920,1080,2-5-2024,23-52-1,1,10,c9,c9_large_flashdrive_L,c9_large_flashdrive_L,flashdrive,L,V,classroom,1,misscaled,c9_large_flashdrive_L_V.png,large,m,1,1128,10,7,c9_large_flashdrive_L_V.png,131191,358150,20,Man
731908,Gabor-Discrimination,v2,jsons/s4_odd.json,0.0043824715107608474,1920,919,1920,1080,2-5-2024,23-52-1,1,11,k5,k5_large_notebook_R,k5_large_notebook_R,notebook,R,H,classroom,0,scaled,k5_large_notebook_R_H.png,large,c,1,1411,11,7,k5_large_notebook_R_H.png,131191,358150,20,Man
274316,Gabor-Discrimination,v2,jsons/s2_odd.json,-1.2113954876433826,2560,1279,2560,1440,2-5-2024,21-31-4,1,0,k1,k1_large_notebook_L,k1_large_notebook_L,notebook,L,H,classroom,0,scaled,k1_large_notebook_L_H.png,large,c,1,850,0,5,k1_large_notebook_L_H.png,124281,227390,29,Man
274316,Gabor-Discrimination,v2,jsons/s2_odd.json,-0.512921635994477,2560,1279,2560,1440,2-5-2024,21-31-4,1,1,c1,c1_large_eraser_R,c1_large_eraser_R,eraser,R,V,classroom,1,misscaled,c1_large_eraser_R_V.png,large,m,1,1212,1,7,c1_large_eraser_R_V.png,124281,227390,29,Man
274316,Gabor-Discrimination,v2,jsons/s2_odd.json,0.14696250009371556,2560,1279,2560,1440,2-5-2024,21-31-4,1,3,k11,k11_large_spoon_L,k11_large_spoon_L,spoon,L,H,kitchen,1,misscaled,k11_large_spoon_L_H.png,large,c,1,1554,3,6,k11_large_spoon_L_H.png,124281,227390,29,Man
274316,Gabor-Discrimination,v2,jsons/s2_odd.json,0.10837278453300253,2560,1279,2560,1440,2-5-2024,21-31-4,1,4,c3,c3_large_sponge_L,c3_large_sponge_L,sponge,L,V,kitchen,0,misscaled,c3_large_sponge_L_V.png,large,m,1,1534,4,6,c3_large_sponge_L_V.png,124281,227390,29,Man
274316,Gabor-Discrimination,v2,jsons/s2_odd.json,1.87964072876973,2560,1279,2560,1440,2-5-2024,21-31-4,1,5,c11,c11_large_kettle_R,c11_large_kettle_R,kettle,R,V,kitchen,0,scaled,c11_large_kettle_R_V.png,large,m,1,2452,5,6,c11_large_kettle_R_V.png,124281,227390,29,Man
274316,Gabor-Discrimination,v2,jsons/s2_odd.json,1.823685641206696,2560,1279,2560,1440,2-5-2024,21-31-4,1,6,c7,c7_large_saltshaker_R,c7_large_saltshaker_R,saltshaker,R,H,kitchen,0,misscaled,c7_large_saltshaker_R_H.png,large,c,1,2423,6,6,c7_large_saltshaker_R_H.png,124281,227390,29,Man
274316,Gabor-Discrimination,v2,jsons/s2_odd.json,0.3128982770047815,2560,1279,2560,1440,2-5-2024,21-31-4,1,7,k3,k3_large_pot_R,k3_large_pot_R,pot,R,H,kitchen,1,scaled,k3_large_pot_R_H.png,large,c,1,1640,7,4,k3_large_pot_R_H.png,124281,227390,29,Man
274316,Gabor-Discrimination,v2,jsons/s2_odd.json,-0.3836460888660884,2560,1279,2560,1440,2-5-2024,21-31-4,1,8,c5,c5_large_flashdrive_L,c5_large_flashdrive_L,flashdrive,L,V,classroom,1,misscaled,c5_large_flashdrive_L_V.png,large,m,1,1279,8,7,c5_large_flashdrive_L_V.png,124281,227390,29,Man
274316,Gabor-Discrimination,v2,jsons/s2_odd.json,-0.7270945573564342,2560,1279,2560,1440,2-5-2024,21-31-4,1,9,k9,k9_large_clipboard_L,k9_large_clipboard_L,clipboard,L,V,classroom,0,scaled,k9_large_clipboard_L_V.png,large,m,1,1101,9,4,k9_large_clipboard_L_V.png,124281,227390,29,Man
274316,Gabor-Discrimination,v2,jsons/s2_odd.json,-0.8081329600339316,2560,1279,2560,1440,2-5-2024,21-31-4,1,10,k7,k7_large_toaster_L,k7_large_toaster_L,toaster,L,V,kitchen,1,scaled,k7_large_toaster_L_V.png,large,m,1,1059,10,5,k7_large_toaster_L_V.png,124281,227390,29,Man
274316,Gabor-Discrimination,v2,jsons/s2_odd.json,0.29939187655853194,2560,1279,2560,1440,2-5-2024,21-31-4,1,11,k5,k5_large_binderclip_R,k5_large_binderclip_R,binderclip,R,H,classroom,0,misscaled,k5_large_binderclip_R_H.png,large,c,1,1633,11,7,k5_large_binderclip_R_H.png,124281,227390,29,Man
931030,Gabor-Discrimination,v2,jsons/s1_odd.json,0.3881663251505091,1536,695,1536,864,2-6-2024,18-8-52,1,2,c5,c5_large_saltshaker_L,c5_large_saltshaker_L,saltshaker,L,H,kitchen,0,misscaled,c5_large_saltshaker_L_H.png,large,c,1,2608,2,4,c5_large_saltshaker_L_H.png,203499,329381,30,Woman
931030,Gabor-Discrimination,v2,jsons/s1_odd.json,1.3854066401713292,1536,695,1536,864,2-6-2024,18-8-52,1,3,c1,c1_large_sponge_R,c1_large_sponge_R,sponge,R,V,kitchen,0,misscaled,c1_large_sponge_R_V.png,large,m,1,3319,3,4,c1_large_sponge_R_V.png,203499,329381,30,Woman
931030,Gabor-Discrimination,v2,jsons/s1_odd.json,0.23949196032321385,1536,695,1536,864,2-6-2024,18-8-52,1,4,c9,c9_large_kettle_R,c9_large_kettle_R,kettle,R,H,kitchen,0,scaled,c9_large_kettle_R_H.png,large,c,1,2502,4,4,c9_large_kettle_R_H.png,203499,329381,30,Woman
931030,Gabor-Discrimination,v2,jsons/s1_odd.json,-1.1729145055360908,1536,695,1536,864,2-6-2024,18-8-52,1,5,k3,k3_large_binderclip_L,k3_large_binderclip_L,binderclip,L,H,classroom,0,misscaled,k3_large_binderclip_L_H.png,large,c,1,1495,5,7,k3_large_binderclip_L_H.png,203499,329381,30,Woman
931030,Gabor-Discrimination,v2,jsons/s1_odd.json,-0.1209732449656058,1536,695,1536,864,2-6-2024,18-8-52,1,6,k11,k11_large_eraser_R,k11_large_eraser_R,eraser,R,H,classroom,0,misscaled,k11_large_eraser_R_H.png,large,c,1,2245,6,7,k11_large_eraser_R_H.png,203499,329381,30,Woman
931030,Gabor-Discrimination,v2,jsons/s1_odd.json,-0.052246415941667436,1536,695,1536,864,2-6-2024,18-8-52,1,8,k1,k1_large_pot_L,k1_large_pot_L,pot,L,V,kitchen,1,scaled,k1_large_pot_L_V.png,large,m,1,2294,8,4,k1_large_pot_L_V.png,203499,329381,30,Woman
931030,Gabor-Discrimination,v2,jsons/s1_odd.json,0.5985545772646061,1536,695,1536,864,2-6-2024,18-8-52,1,9,k9,k9_large_spoon_R,k9_large_spoon_R,spoon,R,V,kitchen,1,misscaled,k9_large_spoon_R_V.png,large,m,1,2758,9,7,k9_large_spoon_R_V.png,203499,329381,30,Woman
931030,Gabor-Discrimination,v2,jsons/s1_odd.json,-1.516548650655783,1536,695,1536,864,2-6-2024,18-8-52,1,10,c7,c7_large_laptop_R,c7_large_laptop_R,laptop,R,V,classroom,1,scaled,c7_large_laptop_R_V.png,large,m,1,1250,10,4,c7_large_laptop_R_V.png,203499,329381,30,Woman
931030,Gabor-Discrimination,v2,jsons/s1_odd.json,-0.962526253421994,1536,695,1536,864,2-6-2024,18-8-52,1,11,c3,c3_large_flashdrive_L,c3_large_flashdrive_L,flashdrive,L,V,classroom,1,misscaled,c3_large_flashdrive_L_V.png,large,m,1,1645,11,7,c3_large_flashdrive_L_V.png,203499,329381,30,Woman
934908,Gabor-Discrimination,v2,jsons/s2_even.json,0.1606297310980927,1349,599,1366,768,2-6-2024,14-4-19,2,1,c0,c0_large_eraser_R,c0_large_eraser_R,eraser,R,H,classroom,1,misscaled,c0_large_eraser_R_H.png,large,c,1,1480,1,4,c0_large_eraser_R_H.png,164745,401015,21,Woman
934908,Gabor-Discrimination,v2,jsons/s2_even.json,1.6708930591136453,1349,599,1366,768,2-6-2024,14-4-19,2,2,k8,k8_large_clipboard_R,k8_large_clipboard_R,clipboard,R,H,classroom,0,scaled,k8_large_clipboard_R_H.png,large,c,1,2039,2,5,k8_large_clipboard_R_H.png,164745,401015,21,Woman
934908,Gabor-Discrimination,v2,jsons/s2_even.json,-0.263540827933109,1349,599,1366,768,2-6-2024,14-4-19,2,3,c2,c2_large_sponge_L,c2_large_sponge_L,sponge,L,V,kitchen,0,misscaled,c2_large_sponge_L_V.png,large,m,1,1323,3,7,c2_large_sponge_L_V.png,164745,401015,21,Woman
934908,Gabor-Discrimination,v2,jsons/s2_even.json,-1.3199146405522164,1349,599,1366,768,2-6-2024,14-4-19,2,4,k6,k6_large_toaster_L,k6_large_toaster_L,toaster,L,V,kitchen,1,scaled,k6_large_toaster_L_V.png,large,m,1,932,4,6,k6_large_toaster_L_V.png,164745,401015,21,Woman
934908,Gabor-Discrimination,v2,jsons/s2_even.json,-0.3013649542161461,1349,599,1366,768,2-6-2024,14-4-19,2,6,k0,k0_large_notebook_R,k0_large_notebook_R,notebook,R,V,classroom,0,scaled,k0_large_notebook_R_V.png,large,m,1,1309,6,4,k0_large_notebook_R_V.png,164745,401015,21,Woman
934908,Gabor-Discrimination,v2,jsons/s2_even.json,1.5520172336526714,1349,599,1366,768,2-6-2024,14-4-19,2,7,c4,c4_large_flashdrive_R,c4_large_flashdrive_R,flashdrive,R,H,classroom,1,misscaled,c4_large_flashdrive_R_H.png,large,c,1,1995,7,7,c4_large_flashdrive_R_H.png,164745,401015,21,Woman
934908,Gabor-Discrimination,v2,jsons/s2_even.json,0.028245289107462875,1349,599,1366,768,2-6-2024,14-4-19,2,8,c6,c6_large_saltshaker_L,c6_large_saltshaker_L,saltshaker,L,V,kitchen,0,misscaled,c6_large_saltshaker_L_V.png,large,m,1,1431,8,7,c6_large_saltshaker_L_V.png,164745,401015,21,Woman
934908,Gabor-Discrimination,v2,jsons/s2_even.json,-0.1230512160246855,1349,599,1366,768,2-6-2024,14-4-19,2,9,c10,c10_large_kettle_R,c10_large_kettle_R,kettle,R,V,kitchen,0,scaled,c10_large_kettle_R_V.png,large,m,1,1375,9,5,c10_large_kettle_R_V.png,164745,401015,21,Woman
934908,Gabor-Discrimination,v2,jsons/s2_even.json,-0.6525889839872048,1349,599,1366,768,2-6-2024,14-4-19,2,10,k4,k4_large_binderclip_L,k4_large_binderclip_L,binderclip,L,H,classroom,0,misscaled,k4_large_binderclip_L_H.png,large,c,1,1179,10,7,k4_large_binderclip_L_H.png,164745,401015,21,Woman
934908,Gabor-Discrimination,v2,jsons/s2_even.json,0.6604485426953686,1349,599,1366,768,2-6-2024,14-4-19,2,11,c8,c8_large_laptop_R,c8_large_laptop_R,laptop,R,H,classroom,1,scaled,c8_large_laptop_R_H.png,large,c,1,1665,11,5,c8_large_laptop_R_H.png,164745,401015,21,Woman
288777,Gabor-Discrimination,v2,jsons/s2_even.json,0.7485804149941907,1440,900,1440,900,2-5-2024,21-33-19,1,0,k10,k10_large_spoon_L,k10_large_spoon_L,spoon,L,V,kitchen,1,misscaled,k10_large_spoon_L_V.png,large,m,1,1784,0,5,k10_large_spoon_L_V.png,124767,221140,25,Woman
288777,Gabor-Discrimination,v2,jsons/s2_even.json,-0.14971608299883832,1440,900,1440,900,2-5-2024,21-33-19,1,1,c0,c0_large_eraser_R,c0_large_eraser_R,eraser,R,H,classroom,1,misscaled,c0_large_eraser_R_H.png,large,c,1,1306,1,7,c0_large_eraser_R_H.png,124767,221140,25,Woman
288777,Gabor-Discrimination,v2,jsons/s2_even.json,-0.8694808502191942,1440,900,1440,900,2-5-2024,21-33-19,1,2,k8,k8_large_clipboard_L,k8_large_clipboard_L,clipboard,L,V,classroom,0,scaled,k8_large_clipboard_L_V.png,large,m,1,923,2,4,k8_large_clipboard_L_V.png,124767,221140,25,Woman
288777,Gabor-Discrimination,v2,jsons/s2_even.json,0.1885545647809634,1440,900,1440,900,2-5-2024,21-33-19,1,5,k2,k2_large_pot_R,k2_large_pot_R,pot,R,V,kitchen,1,scaled,k2_large_pot_R_V.png,large,m,1,1486,5,4,k2_large_pot_R_V.png,124767,221140,25,Woman
288777,Gabor-Discrimination,v2,jsons/s2_even.json,-0.2793864979810957,1440,900,1440,900,2-5-2024,21-33-19,1,6,k0,k0_large_notebook_L,k0_large_notebook_L,notebook,L,H,classroom,0,scaled,k0_large_notebook_L_H.png,large,c,1,1237,6,5,k0_large_notebook_L_H.png,124767,221140,25,Woman
288777,Gabor-Discrimination,v2,jsons/s2_even.json,-0.3940226619509173,1440,900,1440,900,2-5-2024,21-33-19,1,7,c4,c4_large_flashdrive_L,c4_large_flashdrive_L,flashdrive,L,V,classroom,1,misscaled,c4_large_flashdrive_L_V.png,large,m,1,1176,7,7,c4_large_flashdrive_L_V.png,124767,221140,25,Woman
288777,Gabor-Discrimination,v2,jsons/s2_even.json,-0.2981793117466402,1440,900,1440,900,2-5-2024,21-33-19,1,8,c6,c6_large_saltshaker_R,c6_large_saltshaker_R,saltshaker,R,H,kitchen,0,misscaled,c6_large_saltshaker_R_H.png,large,c,1,1227,8,7,c6_large_saltshaker_R_H.png,124767,221140,25,Woman
288777,Gabor-Discrimination,v2,jsons/s2_even.json,0.30694929150389405,1440,900,1440,900,2-5-2024,21-33-19,1,9,c10,c10_large_kettle_R,c10_large_kettle_R,kettle,R,H,kitchen,0,scaled,c10_large_kettle_R_H.png,large,c,1,1549,9,5,c10_large_kettle_R_H.png,124767,221140,25,Woman
288777,Gabor-Discrimination,v2,jsons/s2_even.json,2.468122874541516,1440,900,1440,900,2-5-2024,21-33-19,1,10,k4,k4_large_binderclip_R,k4_large_binderclip_R,binderclip,R,V,classroom,0,misscaled,k4_large_binderclip_R_V.png,large,m,1,2699,10,7,k4_large_binderclip_R_V.png,124767,221140,25,Woman
288777,Gabor-Discrimination,v2,jsons/s2_even.json,-1.2058722166224416,1440,900,1440,900,2-5-2024,21-33-19,1,11,c8,c8_large_laptop_L,c8_large_laptop_L,laptop,L,H,classroom,1,scaled,c8_large_laptop_L_H.png,large,c,1,744,11,5,c8_large_laptop_L_H.png,124767,221140,25,Woman
447827,Gabor-Discrimination,v2,jsons/s0_odd.json,1.4503668333748907,1440,900,1440,900,2-5-2024,20-28-56,1,0,c11,c11_large_pot_R,c11_large_pot_R,pot,R,H,kitchen,0,scaled,c11_large_pot_R_H.png,large,c,1,1625,0,4,c11_large_pot_R_H.png,128083,244668,28,Man
447827,Gabor-Discrimination,v2,jsons/s0_odd.json,1.712251252191172,1440,900,1440,900,2-5-2024,20-28-56,1,1,k3,k3_large_toaster_R,k3_large_toaster_R,toaster,R,H,kitchen,1,scaled,k3_large_toaster_R_H.png,large,c,1,1697,1,6,k3_large_toaster_R_H.png,128083,244668,28,Man
447827,Gabor-Discrimination,v2,jsons/s0_odd.json,0.26097509791761353,1440,900,1440,900,2-5-2024,20-28-56,1,2,k11,k11_large_sponge_R,k11_large_sponge_R,sponge,R,V,kitchen,1,misscaled,k11_large_sponge_R_V.png,large,m,1,1298,2,4,k11_large_sponge_R_V.png,128083,244668,28,Man
447827,Gabor-Discrimination,v2,jsons/s0_odd.json,-0.5865119796406297,1440,900,1440,900,2-5-2024,20-28-56,1,3,k9,k9_large_eraser_R,k9_large_eraser_R,eraser,R,H,classroom,0,misscaled,k9_large_eraser_R_H.png,large,c,1,1065,3,7,k9_large_eraser_R_H.png,128083,244668,28,Man
447827,Gabor-Discrimination,v2,jsons/s0_odd.json,-0.7756507265634995,1440,900,1440,900,2-5-2024,20-28-56,1,4,k7,k7_large_spoon_R,k7_large_spoon_R,spoon,R,H,kitchen,1,misscaled,k7_large_spoon_R_H.png,large,c,1,1013,4,7,k7_large_spoon_R_H.png,128083,244668,28,Man
447827,Gabor-Discrimination,v2,jsons/s0_odd.json,0.2791615158909664,1440,900,1440,900,2-5-2024,20-28-56,1,5,c7,c7_large_kettle_L,c7_large_kettle_L,kettle,L,V,kitchen,0,scaled,c7_large_kettle_L_V.png,large,m,1,1303,5,5,c7_large_kettle_L_V.png,128083,244668,28,Man
447827,Gabor-Discrimination,v2,jsons/s0_odd.json,-1.026623294595769,1440,900,1440,900,2-5-2024,20-28-56,1,6,c9,c9_large_notebook_L,c9_large_notebook_L,notebook,L,H,classroom,1,scaled,c9_large_notebook_L_H.png,large,c,1,944,6,5,c9_large_notebook_L_H.png,128083,244668,28,Man
447827,Gabor-Discrimination,v2,jsons/s0_odd.json,1.2175806833159741,1440,900,1440,900,2-5-2024,20-28-56,1,7,c3,c3_large_saltshaker_L,c3_large_saltshaker_L,saltshaker,L,H,kitchen,0,misscaled,c3_large_saltshaker_L_H.png,large,c,1,1561,7,5,c3_large_saltshaker_L_H.png,128083,244668,28,Man
447827,Gabor-Discrimination,v2,jsons/s0_odd.json,-1.084819832110498,1440,900,1440,900,2-5-2024,20-28-56,1,8,c5,c5_large_laptop_L,c5_large_laptop_L,laptop,L,V,classroom,1,scaled,c5_large_laptop_L_V.png,large,m,1,928,8,4,c5_large_laptop_L_V.png,128083,244668,28,Man
447827,Gabor-Discrimination,v2,jsons/s0_odd.json,-0.06638042560273794,1440,900,1440,900,2-5-2024,20-28-56,1,9,k1,k1_large_binderclip_R,k1_large_binderclip_R,binderclip,R,V,classroom,0,misscaled,k1_large_binderclip_R_V.png,large,m,1,1208,9,7,k1_large_binderclip_R_V.png,128083,244668,28,Man
447827,Gabor-Discrimination,v2,jsons/s0_odd.json,-0.371912247555066,1440,900,1440,900,2-5-2024,20-28-56,1,10,c1,c1_large_flashdrive_L,c1_large_flashdrive_L,flashdrive,L,V,classroom,1,misscaled,c1_large_flashdrive_L_V.png,large,m,1,1124,10,7,c1_large_flashdrive_L_V.png,128083,244668,28,Man
447827,Gabor-Discrimination,v2,jsons/s0_odd.json,-1.0084368766224159,1440,900,1440,900,2-5-2024,20-28-56,1,11,k5,k5_large_clipboard_L,k5_large_clipboard_L,clipboard,L,V,classroom,0,scaled,k5_large_clipboard_L_V.png,large,m,1,949,11,5,k5_large_clipboard_L_V.png,128083,244668,28,Man
110636,Gabor-Discrimination,v2,jsons/s3_odd.json,1.9411166712207568,1536,730,1536,864,2-5-2024,22-48-43,1,0,k3,k3_large_notebook_R,k3_large_notebook_R,notebook,R,H,classroom,0,scaled,k3_large_notebook_R_H.png,large,c,1,2344,0,5,k3_large_notebook_R_H.png,144117,272468,26,Man
110636,Gabor-Discrimination,v2,jsons/s3_odd.json,-0.782150481151471,1536,730,1536,864,2-5-2024,22-48-43,1,1,c11,c11_large_laptop_R,c11_large_laptop_R,laptop,R,V,classroom,1,scaled,c11_large_laptop_R_V.png,large,m,1,848,1,4,c11_large_laptop_R_V.png,144117,272468,26,Man
110636,Gabor-Discrimination,v2,jsons/s3_odd.json,1.8227928978890755,1536,730,1536,864,2-5-2024,22-48-43,1,3,k7,k7_large_binderclip_R,k7_large_binderclip_R,binderclip,R,H,classroom,0,misscaled,k7_large_binderclip_R_H.png,large,c,1,2279,3,7,k7_large_binderclip_R_H.png,144117,272468,26,Man
110636,Gabor-Discrimination,v2,jsons/s3_odd.json,-0.05036345223861309,1536,730,1536,864,2-5-2024,22-48-43,1,4,c3,c3_large_eraser_R,c3_large_eraser_R,eraser,R,V,classroom,1,misscaled,c3_large_eraser_R_V.png,large,m,1,1250,4,7,c3_large_eraser_R_V.png,144117,272468,26,Man
110636,Gabor-Discrimination,v2,jsons/s3_odd.json,-0.5673473234108809,1536,730,1536,864,2-5-2024,22-48-43,1,5,c9,c9_large_saltshaker_L,c9_large_saltshaker_L,saltshaker,L,V,kitchen,0,misscaled,c9_large_saltshaker_L_V.png,large,m,1,966,5,4,c9_large_saltshaker_L_V.png,144117,272468,26,Man
110636,Gabor-Discrimination,v2,jsons/s3_odd.json,0.009708617299009587,1536,730,1536,864,2-5-2024,22-48-43,1,6,c7,c7_large_flashdrive_L,c7_large_flashdrive_L,flashdrive,L,H,classroom,1,misscaled,c7_large_flashdrive_L_H.png,large,c,1,1283,6,7,c7_large_flashdrive_L_H.png,144117,272468,26,Man
110636,Gabor-Discrimination,v2,jsons/s3_odd.json,0.03155300622178146,1536,730,1536,864,2-5-2024,22-48-43,1,7,c1,c1_large_spoon_R,c1_large_spoon_R,spoon,R,H,kitchen,0,misscaled,c1_large_spoon_R_H.png,large,c,1,1295,7,6,c1_large_spoon_R_H.png,144117,272468,26,Man
110636,Gabor-Discrimination,v2,jsons/s3_odd.json,-0.9150371804316666,1536,730,1536,864,2-5-2024,22-48-43,1,8,k5,k5_large_pot_L,k5_large_pot_L,pot,L,V,kitchen,1,scaled,k5_large_pot_L_V.png,large,m,1,775,8,4,k5_large_pot_L_V.png,144117,272468,26,Man
110636,Gabor-Discrimination,v2,jsons/s3_odd.json,-0.8731687683296873,1536,730,1536,864,2-5-2024,22-48-43,1,9,k1,k1_large_kettle_L,k1_large_kettle_L,kettle,L,V,kitchen,1,scaled,k1_large_kettle_L_V.png,large,m,1,798,9,5,k1_large_kettle_L_V.png,144117,272468,26,Man
110636,Gabor-Discrimination,v2,jsons/s3_odd.json,-0.14320210516039358,1536,730,1536,864,2-5-2024,22-48-43,1,10,k11,k11_large_clipboard_R,k11_large_clipboard_R,clipboard,R,V,classroom,0,scaled,k11_large_clipboard_R_V.png,large,m,1,1199,10,6,k11_large_clipboard_R_V.png,144117,272468,26,Man
110636,Gabor-Discrimination,v2,jsons/s3_odd.json,-1.024259125045526,1536,730,1536,864,2-5-2024,22-48-43,1,11,c5,c5_large_sponge_L,c5_large_sponge_L,sponge,L,H,kitchen,0,misscaled,c5_large_sponge_L_H.png,large,c,1,715,11,7,c5_large_sponge_L_H.png,144117,272468,26,Man
824465,Gabor-Discrimination,v2,jsons/s9_even.json,-0.5110832280051264,1920,929,1920,1080,2-6-2024,8-51-43,1,1,k10,k10_large_laptop_R,k10_large_laptop_R,laptop,R,H,classroom,0,scaled,k10_large_laptop_R_H.png,large,c,1,1082,1,4,k10_large_laptop_R_H.png,210858,387181,50,Man
824465,Gabor-Discrimination,v2,jsons/s9_even.json,-0.1035153623239086,1920,929,1920,1080,2-6-2024,8-51-43,1,2,c8,c8_large_toaster_R,c8_large_toaster_R,toaster,R,H,kitchen,0,scaled,c8_large_toaster_R_H.png,large,c,1,1179,2,6,c8_large_toaster_R_H.png,210858,387181,50,Man
824465,Gabor-Discrimination,v2,jsons/s9_even.json,1.5141509086788631,1920,929,1920,1080,2-6-2024,8-51-43,1,3,c10,c10_large_clipboard_L,c10_large_clipboard_L,clipboard,L,V,classroom,1,scaled,c10_large_clipboard_L_V.png,large,m,1,1564,3,4,c10_large_clipboard_L_V.png,210858,387181,50,Man
824465,Gabor-Discrimination,v2,jsons/s9_even.json,2.140208764209805,1920,929,1920,1080,2-6-2024,8-51-43,1,4,c6,c6_large_binderclip_L,c6_large_binderclip_L,binderclip,L,H,classroom,1,misscaled,c6_large_binderclip_L_H.png,large,c,1,1713,4,7,c6_large_binderclip_L_H.png,210858,387181,50,Man
824465,Gabor-Discrimination,v2,jsons/s9_even.json,-0.477469383412861,1920,929,1920,1080,2-6-2024,8-51-43,1,5,c4,c4_large_pot_L,c4_large_pot_L,pot,L,V,kitchen,0,scaled,c4_large_pot_L_V.png,large,m,1,1090,5,5,c4_large_pot_L_V.png,210858,387181,50,Man
824465,Gabor-Discrimination,v2,jsons/s9_even.json,-0.3094001604515341,1920,929,1920,1080,2-6-2024,8-51-43,1,6,k8,k8_large_saltshaker_R,k8_large_saltshaker_R,saltshaker,R,V,kitchen,1,misscaled,k8_large_saltshaker_R_V.png,large,m,1,1130,6,6,k8_large_saltshaker_R_V.png,210858,387181,50,Man
824465,Gabor-Discrimination,v2,jsons/s9_even.json,-0.9774753217228084,1920,929,1920,1080,2-6-2024,8-51-43,1,7,k4,k4_large_sponge_R,k4_large_sponge_R,sponge,R,V,kitchen,1,misscaled,k4_large_sponge_R_V.png,large,m,1,971,7,6,k4_large_sponge_R_V.png,210858,387181,50,Man
824465,Gabor-Discrimination,v2,jsons/s9_even.json,-0.12452401519407448,1920,929,1920,1080,2-6-2024,8-51-43,1,8,k0,k0_large_spoon_L,k0_large_spoon_L,spoon,L,H,kitchen,1,misscaled,k0_large_spoon_L_H.png,large,c,1,1174,8,5,k0_large_spoon_L_H.png,210858,387181,50,Man
824465,Gabor-Discrimination,v2,jsons/s9_even.json,0.3628767313937736,1920,929,1920,1080,2-6-2024,8-51-43,1,9,c2,c2_large_notebook_R,c2_large_notebook_R,notebook,R,V,classroom,1,scaled,c2_large_notebook_R_V.png,large,m,1,1290,9,5,c2_large_notebook_R_V.png,210858,387181,50,Man
824465,Gabor-Discrimination,v2,jsons/s9_even.json,-0.38082958021009794,1920,929,1920,1080,2-6-2024,8-51-43,1,10,k6,k6_large_flashdrive_L,k6_large_flashdrive_L,flashdrive,L,V,classroom,0,misscaled,k6_large_flashdrive_L_V.png,large,m,1,1113,10,7,k6_large_flashdrive_L_V.png,210858,387181,50,Man
824465,Gabor-Discrimination,v2,jsons/s9_even.json,-1.1329393529620357,1920,929,1920,1080,2-6-2024,8-51-43,1,11,c0,c0_large_kettle_L,c0_large_kettle_L,kettle,L,H,kitchen,0,scaled,c0_large_kettle_L_H.png,large,c,1,934,11,5,c0_large_kettle_L_H.png,210858,387181,50,Man
166575,Gabor-Discrimination,v2,jsons/s4_even.json,1.1020828492572516,1920,919,1920,1080,2-6-2024,18-10-2,1,0,k0,k0_large_laptop_R,k0_large_laptop_R,laptop,R,H,classroom,0,scaled,k0_large_laptop_R_H.png,large,c,1,1755,0,4,k0_large_laptop_R_H.png,124160,249143,32,Woman
166575,Gabor-Discrimination,v2,jsons/s4_even.json,-0.8183360435547258,1920,919,1920,1080,2-6-2024,18-10-2,1,1,k4,k4_large_notebook_L,k4_large_notebook_L,notebook,L,H,classroom,0,scaled,k4_large_notebook_L_H.png,large,c,1,1006,1,7,k4_large_notebook_L_H.png,124160,249143,32,Woman
166575,Gabor-Discrimination,v2,jsons/s4_even.json,-1.077297736710947,1920,919,1920,1080,2-6-2024,18-10-2,1,2,c0,c0_large_clipboard_L,c0_large_clipboard_L,clipboard,L,H,classroom,1,scaled,c0_large_clipboard_L_H.png,large,c,1,905,2,5,c0_large_clipboard_L_H.png,124160,249143,32,Woman
166575,Gabor-Discrimination,v2,jsons/s4_even.json,-0.1978535708437798,1920,919,1920,1080,2-6-2024,18-10-2,1,3,k8,k8_large_binderclip_L,k8_large_binderclip_L,binderclip,L,V,classroom,0,misscaled,k8_large_binderclip_L_V.png,large,m,1,1248,3,7,k8_large_binderclip_L_V.png,124160,249143,32,Woman
166575,Gabor-Discrimination,v2,jsons/s4_even.json,0.5456998055453703,1920,919,1920,1080,2-6-2024,18-10-2,1,4,c8,c8_large_flashdrive_L,c8_large_flashdrive_L,flashdrive,L,H,classroom,1,misscaled,c8_large_flashdrive_L_H.png,large,c,1,1538,4,7,c8_large_flashdrive_L_H.png,124160,249143,32,Woman
166575,Gabor-Discrimination,v2,jsons/s4_even.json,-0.3722040177212357,1920,919,1920,1080,2-6-2024,18-10-2,1,5,c10,c10_large_saltshaker_R,c10_large_saltshaker_R,saltshaker,R,V,kitchen,0,misscaled,c10_large_saltshaker_R_V.png,large,m,1,1180,5,7,c10_large_saltshaker_R_V.png,124160,249143,32,Woman
166575,Gabor-Discrimination,v2,jsons/s4_even.json,1.855892134286252,1920,919,1920,1080,2-6-2024,18-10-2,1,6,c6,c6_large_sponge_L,c6_large_sponge_L,sponge,L,V,kitchen,0,misscaled,c6_large_sponge_L_V.png,large,m,1,2049,6,7,c6_large_sponge_L_V.png,124160,249143,32,Woman
166575,Gabor-Discrimination,v2,jsons/s4_even.json,-0.07991062148550081,1920,919,1920,1080,2-6-2024,18-10-2,1,7,k10,k10_large_toaster_R,k10_large_toaster_R,toaster,R,V,kitchen,1,scaled,k10_large_toaster_R_V.png,large,m,1,1294,7,4,k10_large_toaster_R_V.png,124160,249143,32,Woman
166575,Gabor-Discrimination,v2,jsons/s4_even.json,1.4020681769728742,1920,919,1920,1080,2-6-2024,18-10-2,1,8,c2,c2_large_spoon_R,c2_large_spoon_R,spoon,R,H,kitchen,0,misscaled,c2_large_spoon_R_H.png,large,c,1,1872,8,7,c2_large_spoon_R_H.png,124160,249143,32,Woman
166575,Gabor-Discrimination,v2,jsons/s4_even.json,-0.4465593553601507,1920,919,1920,1080,2-6-2024,18-10-2,1,9,c4,c4_large_eraser_L,c4_large_eraser_L,eraser,L,V,classroom,1,misscaled,c4_large_eraser_L_V.png,large,m,1,1151,9,7,c4_large_eraser_L_V.png,124160,249143,32,Woman
166575,Gabor-Discrimination,v2,jsons/s4_even.json,-0.8285919521945762,1920,919,1920,1080,2-6-2024,18-10-2,1,10,k6,k6_large_pot_R,k6_large_pot_R,pot,R,H,kitchen,1,scaled,k6_large_pot_R_H.png,large,c,1,1002,10,5,k6_large_pot_R_H.png,124160,249143,32,Woman
166575,Gabor-Discrimination,v2,jsons/s4_even.json,-1.0849896681908349,1920,919,1920,1080,2-6-2024,18-10-2,1,11,k2,k2_large_kettle_R,k2_large_kettle_R,kettle,R,V,kitchen,1,scaled,k2_large_kettle_R_V.png,large,m,1,902,11,6,k2_large_kettle_R_V.png,124160,249143,32,Woman
352249,Gabor-Discrimination,v2,jsons/s10_odd.json,2.6688425805672757,1528,708,1536,864,2-5-2024,22-50-37,3,0,k7,k7_large_sponge_L,k7_large_sponge_L,sponge,L,H,kitchen,1,misscaled,k7_large_sponge_L_H.png,large,c,1,4918,0,6,k7_large_sponge_L_H.png,128529,347211,27,Man
352249,Gabor-Discrimination,v2,jsons/s10_odd.json,0.2825187932152409,1528,708,1536,864,2-5-2024,22-50-37,3,1,c9,c9_large_binderclip_L,c9_large_binderclip_L,binderclip,L,V,classroom,1,misscaled,c9_large_binderclip_L_V.png,large,m,1,2163,1,7,c9_large_binderclip_L_V.png,128529,347211,27,Man
352249,Gabor-Discrimination,v2,jsons/s10_odd.json,0.6341875618776459,1528,708,1536,864,2-5-2024,22-50-37,3,2,k9,k9_large_flashdrive_R,k9_large_flashdrive_R,flashdrive,R,H,classroom,0,misscaled,k9_large_flashdrive_R_H.png,large,c,1,2569,2,7,k9_large_flashdrive_R_H.png,128529,347211,27,Man
352249,Gabor-Discrimination,v2,jsons/s10_odd.json,0.42717072515273263,1528,708,1536,864,2-5-2024,22-50-37,3,3,c5,c5_large_notebook_L,c5_large_notebook_L,notebook,L,V,classroom,1,scaled,c5_large_notebook_L_V.png,large,m,1,2330,3,6,c5_large_notebook_L_V.png,128529,347211,27,Man
352249,Gabor-Discrimination,v2,jsons/s10_odd.json,-0.5923222322749786,1528,708,1536,864,2-5-2024,22-50-37,3,4,c11,c11_large_toaster_L,c11_large_toaster_L,toaster,L,H,kitchen,0,scaled,c11_large_toaster_L_H.png,large,c,1,1153,4,4,c11_large_toaster_L_H.png,128529,347211,27,Man
352249,Gabor-Discrimination,v2,jsons/s10_odd.json,-0.7101226079845526,1528,708,1536,864,2-5-2024,22-50-37,3,6,c7,c7_large_pot_R,c7_large_pot_R,pot,R,V,kitchen,0,scaled,c7_large_pot_R_V.png,large,m,1,1017,6,4,c7_large_pot_R_V.png,128529,347211,27,Man
352249,Gabor-Discrimination,v2,jsons/s10_odd.json,0.4930003468727888,1528,708,1536,864,2-5-2024,22-50-37,3,7,k3,k3_large_spoon_R,k3_large_spoon_R,spoon,R,H,kitchen,1,misscaled,k3_large_spoon_R_H.png,large,c,1,2406,7,4,k3_large_spoon_R_H.png,128529,347211,27,Man
352249,Gabor-Discrimination,v2,jsons/s10_odd.json,-0.7612271827409121,1528,708,1536,864,2-5-2024,22-50-37,3,8,k1,k1_large_clipboard_R,k1_large_clipboard_R,clipboard,R,V,classroom,0,scaled,k1_large_clipboard_R_V.png,large,m,1,958,8,4,k1_large_clipboard_R_V.png,128529,347211,27,Man
352249,Gabor-Discrimination,v2,jsons/s10_odd.json,-0.6555533162955588,1528,708,1536,864,2-5-2024,22-50-37,3,9,c3,c3_large_kettle_R,c3_large_kettle_R,kettle,R,H,kitchen,0,scaled,c3_large_kettle_R_H.png,large,c,1,1080,9,4,c3_large_kettle_R_H.png,128529,347211,27,Man
352249,Gabor-Discrimination,v2,jsons/s10_odd.json,-0.435543791073266,1528,708,1536,864,2-5-2024,22-50-37,3,10,k5,k5_large_eraser_L,k5_large_eraser_L,eraser,L,H,classroom,0,misscaled,k5_large_eraser_L_H.png,large,c,1,1334,10,6,k5_large_eraser_L_H.png,128529,347211,27,Man
352249,Gabor-Discrimination,v2,jsons/s10_odd.json,-0.7153196833835045,1528,708,1536,864,2-5-2024,22-50-37,3,11,k11,k11_large_saltshaker_L,k11_large_saltshaker_L,saltshaker,L,V,kitchen,1,misscaled,k11_large_saltshaker_L_V.png,large,m,1,1011,11,5,k11_large_saltshaker_L_V.png,128529,347211,27,Man
317739,Gabor-Discrimination,v2,jsons/s11_odd.json,2.9625058886407816,1536,695,1536,864,2-6-2024,13-5-50,1,0,c7,c7_large_notebook_R,c7_large_notebook_R,notebook,R,H,classroom,1,scaled,c7_large_notebook_R_H.png,large,c,1,3526,0,5,c7_large_notebook_R_H.png,169535,293214,30,Man
317739,Gabor-Discrimination,v2,jsons/s11_odd.json,0.5078520325332437,1536,695,1536,864,2-6-2024,13-5-50,1,1,k11,k11_large_flashdrive_R,k11_large_flashdrive_R,flashdrive,R,V,classroom,0,misscaled,k11_large_flashdrive_R_V.png,large,m,1,1616,1,7,k11_large_flashdrive_R_V.png,169535,293214,30,Man
317739,Gabor-Discrimination,v2,jsons/s11_odd.json,-0.2773801696037749,1536,695,1536,864,2-6-2024,13-5-50,1,2,c1,c1_large_saltshaker_R,c1_large_saltshaker_R,saltshaker,R,V,kitchen,0,misscaled,c1_large_saltshaker_R_V.png,large,m,1,1005,2,7,c1_large_saltshaker_R_V.png,169535,293214,30,Man
317739,Gabor-Discrimination,v2,jsons/s11_odd.json,0.034913488529278336,1536,695,1536,864,2-6-2024,13-5-50,1,3,k9,k9_large_sponge_L,k9_large_sponge_L,sponge,L,H,kitchen,1,misscaled,k9_large_sponge_L_H.png,large,c,1,1248,3,7,k9_large_sponge_L_H.png,169535,293214,30,Man
317739,Gabor-Discrimination,v2,jsons/s11_odd.json,0.17885130626961565,1536,695,1536,864,2-6-2024,13-5-50,1,4,c11,c11_large_binderclip_R,c11_large_binderclip_R,binderclip,R,V,classroom,1,misscaled,c11_large_binderclip_R_V.png,large,m,1,1360,4,7,c11_large_binderclip_R_V.png,169535,293214,30,Man
317739,Gabor-Discrimination,v2,jsons/s11_odd.json,-0.4393102145616544,1536,695,1536,864,2-6-2024,13-5-50,1,5,k1,k1_large_toaster_L,k1_large_toaster_L,toaster,L,H,kitchen,1,scaled,k1_large_toaster_L_H.png,large,c,1,879,5,6,k1_large_toaster_L_H.png,169535,293214,30,Man
317739,Gabor-Discrimination,v2,jsons/s11_odd.json,-0.6963420319551139,1536,695,1536,864,2-6-2024,13-5-50,1,6,c9,c9_large_pot_R,c9_large_pot_R,pot,R,H,kitchen,0,scaled,c9_large_pot_R_H.png,large,c,1,679,6,4,c9_large_pot_R_H.png,169535,293214,30,Man
317739,Gabor-Discrimination,v2,jsons/s11_odd.json,-0.5536893733017438,1536,695,1536,864,2-6-2024,13-5-50,1,7,c3,c3_large_laptop_R,c3_large_laptop_R,laptop,R,V,classroom,1,scaled,c3_large_laptop_R_V.png,large,m,1,790,7,4,c3_large_laptop_R_V.png,169535,293214,30,Man
317739,Gabor-Discrimination,v2,jsons/s11_odd.json,-0.5960996231716646,1536,695,1536,864,2-6-2024,13-5-50,1,8,c5,c5_large_kettle_L,c5_large_kettle_L,kettle,L,V,kitchen,0,scaled,c5_large_kettle_L_V.png,large,m,1,757,8,6,c5_large_kettle_L_V.png,169535,293214,30,Man
317739,Gabor-Discrimination,v2,jsons/s11_odd.json,-0.3711967829523876,1536,695,1536,864,2-6-2024,13-5-50,1,9,k5,k5_large_spoon_L,k5_large_spoon_L,spoon,L,V,kitchen,1,misscaled,k5_large_spoon_L_V.png,large,m,1,932,9,6,k5_large_spoon_L_V.png,169535,293214,30,Man
317739,Gabor-Discrimination,v2,jsons/s11_odd.json,-0.5948144640846974,1536,695,1536,864,2-6-2024,13-5-50,1,10,k3,k3_large_clipboard_L,k3_large_clipboard_L,clipboard,L,H,classroom,0,scaled,k3_large_clipboard_L_H.png,large,c,1,758,10,6,k3_large_clipboard_L_H.png,169535,293214,30,Man
317739,Gabor-Discrimination,v2,jsons/s11_odd.json,-0.15529005634188167,1536,695,1536,864,2-6-2024,13-5-50,1,11,k7,k7_large_eraser_L,k7_large_eraser_L,eraser,L,H,classroom,0,misscaled,k7_large_eraser_L_H.png,large,c,1,1100,11,7,k7_large_eraser_L_H.png,169535,293214,30,Man
959033,Gabor-Discrimination,v2,jsons/s5_even.json,0.6669497944546839,1536,703,1536,864,2-5-2024,21-16-41,1,0,c0,c0_large_toaster_L,c0_large_toaster_L,toaster,L,H,kitchen,0,scaled,c0_large_toaster_L_H.png,large,c,1,2761,0,5,c0_large_toaster_L_H.png,261719,709042,40,Woman
959033,Gabor-Discrimination,v2,jsons/s5_even.json,-0.34292560281678075,1536,703,1536,864,2-5-2024,21-16-41,1,2,k8,k8_large_pot_L,k8_large_pot_L,pot,L,V,kitchen,1,scaled,k8_large_pot_L_V.png,large,m,1,1945,2,4,k8_large_pot_L_V.png,261719,709042,40,Woman
959033,Gabor-Discrimination,v2,jsons/s5_even.json,-0.30084746126380296,1536,703,1536,864,2-5-2024,21-16-41,1,3,c2,c2_large_clipboard_L,c2_large_clipboard_L,clipboard,L,V,classroom,1,scaled,c2_large_clipboard_L_V.png,large,m,1,1979,3,5,c2_large_clipboard_L_V.png,261719,709042,40,Woman
959033,Gabor-Discrimination,v2,jsons/s5_even.json,1.0666921392079722,1536,703,1536,864,2-5-2024,21-16-41,1,4,k6,k6_large_notebook_R,k6_large_notebook_R,notebook,R,V,classroom,0,scaled,k6_large_notebook_R_V.png,large,m,1,3084,4,5,k6_large_notebook_R_V.png,261719,709042,40,Woman
959033,Gabor-Discrimination,v2,jsons/s5_even.json,0.07538062791576229,1536,703,1536,864,2-5-2024,21-16-41,1,5,k2,k2_large_laptop_R,k2_large_laptop_R,laptop,R,H,classroom,0,scaled,k2_large_laptop_R_H.png,large,c,1,2283,5,4,k2_large_laptop_R_H.png,261719,709042,40,Woman
959033,Gabor-Discrimination,v2,jsons/s5_even.json,0.03577767116001858,1536,703,1536,864,2-5-2024,21-16-41,1,6,c4,c4_large_spoon_R,c4_large_spoon_R,spoon,R,V,kitchen,0,misscaled,c4_large_spoon_R_V.png,large,m,1,2251,6,7,c4_large_spoon_R_V.png,261719,709042,40,Woman
959033,Gabor-Discrimination,v2,jsons/s5_even.json,-0.2241167325495496,1536,703,1536,864,2-5-2024,21-16-41,1,7,c6,c6_large_eraser_L,c6_large_eraser_L,eraser,L,H,classroom,1,misscaled,c6_large_eraser_L_H.png,large,c,1,2041,7,7,c6_large_eraser_L_H.png,261719,709042,40,Woman
959033,Gabor-Discrimination,v2,jsons/s5_even.json,-1.2203786134362276,1536,703,1536,864,2-5-2024,21-16-41,1,8,k4,k4_large_kettle_L,k4_large_kettle_L,kettle,L,V,kitchen,1,scaled,k4_large_kettle_L_V.png,large,m,1,1236,8,6,k4_large_kettle_L_V.png,261719,709042,40,Woman
959033,Gabor-Discrimination,v2,jsons/s5_even.json,-1.1436478847219742,1536,703,1536,864,2-5-2024,21-16-41,1,9,c8,c8_large_sponge_R,c8_large_sponge_R,sponge,R,H,kitchen,0,misscaled,c8_large_sponge_R_H.png,large,c,1,1298,9,7,c8_large_sponge_R_H.png,261719,709042,40,Woman
959033,Gabor-Discrimination,v2,jsons/s5_even.json,-0.7884588663188976,1536,703,1536,864,2-5-2024,21-16-41,1,10,k0,k0_large_saltshaker_L,k0_large_saltshaker_L,saltshaker,L,H,kitchen,1,misscaled,k0_large_saltshaker_L_H.png,large,c,1,1585,10,7,k0_large_saltshaker_L_H.png,261719,709042,40,Woman
959033,Gabor-Discrimination,v2,jsons/s5_even.json,2.1755749283687966,1536,703,1536,864,2-5-2024,21-16-41,1,11,k10,k10_large_binderclip_R,k10_large_binderclip_R,binderclip,R,H,classroom,0,misscaled,k10_large_binderclip_R_H.png,large,c,1,3980,11,7,k10_large_binderclip_R_H.png,261719,709042,40,Woman
214528,Gabor-Discrimination,v2,jsons/s2_even.json,-0.6403805471908375,1536,730,1536,864,2-5-2024,21-32-18,1,0,k10,k10_large_spoon_L,k10_large_spoon_L,spoon,L,V,kitchen,1,misscaled,k10_large_spoon_L_V.png,large,m,1,958,0,6,k10_large_spoon_L_V.png,143535,292793,21,Woman
214528,Gabor-Discrimination,v2,jsons/s2_even.json,1.007444036096101,1536,730,1536,864,2-5-2024,21-32-18,1,2,k8,k8_large_clipboard_L,k8_large_clipboard_L,clipboard,L,V,classroom,0,scaled,k8_large_clipboard_L_V.png,large,m,1,1270,2,4,k8_large_clipboard_L_V.png,143535,292793,21,Woman
214528,Gabor-Discrimination,v2,jsons/s2_even.json,-0.8410771310527083,1536,730,1536,864,2-5-2024,21-32-18,1,3,c2,c2_large_sponge_L,c2_large_sponge_L,sponge,L,V,kitchen,0,misscaled,c2_large_sponge_L_V.png,large,m,1,920,3,7,c2_large_sponge_L_V.png,143535,292793,21,Woman
214528,Gabor-Discrimination,v2,jsons/s2_even.json,0.030368562031730436,1536,730,1536,864,2-5-2024,21-32-18,1,4,k6,k6_large_toaster_R,k6_large_toaster_R,toaster,R,H,kitchen,1,scaled,k6_large_toaster_R_H.png,large,c,1,1085,4,4,k6_large_toaster_R_H.png,143535,292793,21,Woman
214528,Gabor-Discrimination,v2,jsons/s2_even.json,-1.2530332768744428,1536,730,1536,864,2-5-2024,21-32-18,1,5,k2,k2_large_pot_R,k2_large_pot_R,pot,R,H,kitchen,1,scaled,k2_large_pot_R_H.png,large,c,1,842,5,4,k2_large_pot_R_H.png,143535,292793,21,Woman
214528,Gabor-Discrimination,v2,jsons/s2_even.json,-0.24955035756508925,1536,730,1536,864,2-5-2024,21-32-18,1,6,k0,k0_large_notebook_R,k0_large_notebook_R,notebook,R,H,classroom,0,scaled,k0_large_notebook_R_H.png,large,c,1,1032,6,4,k0_large_notebook_R_H.png,143535,292793,21,Woman
214528,Gabor-Discrimination,v2,jsons/s2_even.json,0.35782088306951954,1536,730,1536,864,2-5-2024,21-32-18,1,7,c4,c4_large_flashdrive_L,c4_large_flashdrive_L,flashdrive,L,H,classroom,1,misscaled,c4_large_flashdrive_L_H.png,large,c,1,1147,7,7,c4_large_flashdrive_L_H.png,143535,292793,21,Woman
214528,Gabor-Discrimination,v2,jsons/s2_even.json,1.6306597438776995,1536,730,1536,864,2-5-2024,21-32-18,1,8,c6,c6_large_saltshaker_R,c6_large_saltshaker_R,saltshaker,R,V,kitchen,0,misscaled,c6_large_saltshaker_R_V.png,large,m,1,1388,8,7,c6_large_saltshaker_R_V.png,143535,292793,21,Woman
214528,Gabor-Discrimination,v2,jsons/s2_even.json,-0.2072984451731165,1536,730,1536,864,2-5-2024,21-32-18,1,9,c10,c10_large_kettle_R,c10_large_kettle_R,kettle,R,H,kitchen,0,scaled,c10_large_kettle_R_H.png,large,c,1,1040,9,4,c10_large_kettle_R_H.png,143535,292793,21,Woman
214528,Gabor-Discrimination,v2,jsons/s2_even.json,1.5672818752897406,1536,730,1536,864,2-5-2024,21-32-18,1,10,k4,k4_large_binderclip_L,k4_large_binderclip_L,binderclip,L,V,classroom,0,misscaled,k4_large_binderclip_L_V.png,large,m,1,1376,10,7,k4_large_binderclip_L_V.png,143535,292793,21,Woman
214528,Gabor-Discrimination,v2,jsons/s2_even.json,-0.006601861311245748,1536,730,1536,864,2-5-2024,21-32-18,1,11,c8,c8_large_laptop_L,c8_large_laptop_L,laptop,L,V,classroom,1,scaled,c8_large_laptop_L_V.png,large,m,1,1078,11,4,c8_large_laptop_L_V.png,143535,292793,21,Woman
906353,Gabor-Discrimination,v2,jsons/s11_odd.json,0.5619653013395773,1217,598,1280,720,2-5-2024,0-22-37,1,0,c7,c7_large_notebook_L,c7_large_notebook_L,notebook,L,H,classroom,1,scaled,c7_large_notebook_L_H.png,large,c,1,1722,0,2,c7_large_notebook_L_H.png,196876,395866,21,Woman
906353,Gabor-Discrimination,v2,jsons/s11_odd.json,2.385745475171525,1217,598,1280,720,2-5-2024,0-22-37,1,1,k11,k11_large_flashdrive_R,k11_large_flashdrive_R,flashdrive,R,H,classroom,0,misscaled,k11_large_flashdrive_R_H.png,large,c,1,2509,1,7,k11_large_flashdrive_R_H.png,196876,395866,21,Woman
906353,Gabor-Discrimination,v2,jsons/s11_odd.json,-0.11239306026791547,1217,598,1280,720,2-5-2024,0-22-37,1,2,c1,c1_large_saltshaker_L,c1_large_saltshaker_L,saltshaker,L,H,kitchen,0,misscaled,c1_large_saltshaker_L_H.png,large,c,1,1431,2,4,c1_large_saltshaker_L_H.png,196876,395866,21,Woman
906353,Gabor-Discrimination,v2,jsons/s11_odd.json,0.3302270327459372,1217,598,1280,720,2-5-2024,0-22-37,1,3,k9,k9_large_sponge_L,k9_large_sponge_L,sponge,L,H,kitchen,1,misscaled,k9_large_sponge_L_H.png,large,c,1,1622,3,7,k9_large_sponge_L_H.png,196876,395866,21,Woman
906353,Gabor-Discrimination,v2,jsons/s11_odd.json,0.9953158636096844,1217,598,1280,720,2-5-2024,0-22-37,1,4,c11,c11_large_binderclip_L,c11_large_binderclip_L,binderclip,L,V,classroom,1,misscaled,c11_large_binderclip_L_V.png,large,m,1,1909,4,3,c11_large_binderclip_L_V.png,196876,395866,21,Woman
906353,Gabor-Discrimination,v2,jsons/s11_odd.json,-0.049823727747632635,1217,598,1280,720,2-5-2024,0-22-37,1,5,k1,k1_large_toaster_R,k1_large_toaster_R,toaster,R,H,kitchen,1,scaled,k1_large_toaster_R_H.png,large,c,1,1458,5,4,k1_large_toaster_R_H.png,196876,395866,21,Woman
906353,Gabor-Discrimination,v2,jsons/s11_odd.json,-0.8655424331972459,1217,598,1280,720,2-5-2024,0-22-37,1,6,c9,c9_large_pot_R,c9_large_pot_R,pot,R,V,kitchen,0,scaled,c9_large_pot_R_V.png,large,m,1,1106,6,4,c9_large_pot_R_V.png,196876,395866,21,Woman
906353,Gabor-Discrimination,v2,jsons/s11_odd.json,-0.5225697956786585,1217,598,1280,720,2-5-2024,0-22-37,1,7,c3,c3_large_laptop_L,c3_large_laptop_L,laptop,L,V,classroom,1,scaled,c3_large_laptop_L_V.png,large,m,1,1254,7,4,c3_large_laptop_L_V.png,196876,395866,21,Woman
906353,Gabor-Discrimination,v2,jsons/s11_odd.json,-1.0578851961299671,1217,598,1280,720,2-5-2024,0-22-37,1,8,c5,c5_large_kettle_L,c5_large_kettle_L,kettle,L,V,kitchen,0,scaled,c5_large_kettle_L_V.png,large,m,1,1023,8,4,c5_large_kettle_L_V.png,196876,395866,21,Woman
906353,Gabor-Discrimination,v2,jsons/s11_odd.json,0.12166259101166108,1217,598,1280,720,2-5-2024,0-22-37,1,9,k5,k5_large_spoon_R,k5_large_spoon_R,spoon,R,V,kitchen,1,misscaled,k5_large_spoon_R_V.png,large,m,1,1532,9,2,k5_large_spoon_R_V.png,196876,395866,21,Woman
906353,Gabor-Discrimination,v2,jsons/s11_odd.json,-0.6430736953473514,1217,598,1280,720,2-5-2024,0-22-37,1,10,k3,k3_large_clipboard_R,k3_large_clipboard_R,clipboard,R,H,classroom,0,scaled,k3_large_clipboard_R_H.png,large,c,1,1202,10,1,k3_large_clipboard_R_H.png,196876,395866,21,Woman
906353,Gabor-Discrimination,v2,jsons/s11_odd.json,-1.143628355509614,1217,598,1280,720,2-5-2024,0-22-37,1,11,k7,k7_large_eraser_R,k7_large_eraser_R,eraser,R,V,classroom,0,misscaled,k7_large_eraser_R_V.png,large,m,1,986,11,4,k7_large_eraser_R_V.png,196876,395866,21,Woman
568669,Gabor-Discrimination,v2,jsons/s1_odd.json,1.2793796737236134,1280,657,1280,768,2-6-2024,14-9-2,2,0,c11,c11_large_notebook_R,c11_large_notebook_R,notebook,R,V,classroom,1,scaled,c11_large_notebook_R_V.png,large,m,1,1715,0,4,c11_large_notebook_R_V.png,220752,821284,68,Woman
568669,Gabor-Discrimination,v2,jsons/s1_odd.json,1.9910687189991256,1280,657,1280,768,2-6-2024,14-9-2,2,1,k5,k5_large_toaster_R,k5_large_toaster_R,toaster,R,V,kitchen,1,scaled,k5_large_toaster_R_V.png,large,m,1,1965,1,6,k5_large_toaster_R_V.png,220752,821284,68,Woman
568669,Gabor-Discrimination,v2,jsons/s1_odd.json,-0.6108664305281479,1280,657,1280,768,2-6-2024,14-9-2,2,2,c5,c5_large_saltshaker_L,c5_large_saltshaker_L,saltshaker,L,H,kitchen,0,misscaled,c5_large_saltshaker_L_H.png,large,c,1,1051,2,7,c5_large_saltshaker_L_H.png,220752,821284,68,Woman
568669,Gabor-Discrimination,v2,jsons/s1_odd.json,0.17199151927491574,1280,657,1280,768,2-6-2024,14-9-2,2,4,c9,c9_large_kettle_R,c9_large_kettle_R,kettle,R,V,kitchen,0,scaled,c9_large_kettle_R_V.png,large,m,1,1326,4,5,c9_large_kettle_R_V.png,220752,821284,68,Woman
568669,Gabor-Discrimination,v2,jsons/s1_odd.json,-0.12691787974079954,1280,657,1280,768,2-6-2024,14-9-2,2,5,k3,k3_large_binderclip_L,k3_large_binderclip_L,binderclip,L,V,classroom,0,misscaled,k3_large_binderclip_L_V.png,large,m,1,1221,5,7,k3_large_binderclip_L_V.png,220752,821284,68,Woman
568669,Gabor-Discrimination,v2,jsons/s1_odd.json,-0.4941494271029641,1280,657,1280,768,2-6-2024,14-9-2,2,6,k11,k11_large_eraser_R,k11_large_eraser_R,eraser,R,V,classroom,0,misscaled,k11_large_eraser_R_V.png,large,m,1,1092,6,7,k11_large_eraser_R_V.png,220752,821284,68,Woman
568669,Gabor-Discrimination,v2,jsons/s1_odd.json,-0.15538544155182005,1280,657,1280,768,2-6-2024,14-9-2,2,7,k7,k7_large_clipboard_L,k7_large_clipboard_L,clipboard,L,H,classroom,0,scaled,k7_large_clipboard_L_H.png,large,c,1,1211,7,5,k7_large_clipboard_L_H.png,220752,821284,68,Woman
568669,Gabor-Discrimination,v2,jsons/s1_odd.json,-1.0663474195044762,1280,657,1280,768,2-6-2024,14-9-2,2,8,k1,k1_large_pot_L,k1_large_pot_L,pot,L,H,kitchen,1,scaled,k1_large_pot_L_H.png,large,c,1,891,8,5,k1_large_pot_L_H.png,220752,821284,68,Woman
568669,Gabor-Discrimination,v2,jsons/s1_odd.json,-0.4685286214730456,1280,657,1280,768,2-6-2024,14-9-2,2,9,k9,k9_large_spoon_L,k9_large_spoon_L,spoon,L,V,kitchen,1,misscaled,k9_large_spoon_L_V.png,large,m,1,1101,9,6,k9_large_spoon_L_V.png,220752,821284,68,Woman
568669,Gabor-Discrimination,v2,jsons/s1_odd.json,1.1939769882905518,1280,657,1280,768,2-6-2024,14-9-2,2,10,c7,c7_large_laptop_R,c7_large_laptop_R,laptop,R,H,classroom,1,scaled,c7_large_laptop_R_H.png,large,c,1,1685,10,4,c7_large_laptop_R_H.png,220752,821284,68,Woman
568669,Gabor-Discrimination,v2,jsons/s1_odd.json,-0.37743242367778,1280,657,1280,768,2-6-2024,14-9-2,2,11,c3,c3_large_flashdrive_L,c3_large_flashdrive_L,flashdrive,L,H,classroom,1,misscaled,c3_large_flashdrive_L_H.png,large,c,1,1133,11,7,c3_large_flashdrive_L_H.png,220752,821284,68,Woman
527415,Gabor-Discrimination,v2,jsons/s6_odd.json,0.06888883111469139,1366,633,1366,768,2-5-2024,20-30-20,2,0,c11,c11_large_sponge_L,c11_large_sponge_L,sponge,L,H,kitchen,0,misscaled,c11_large_sponge_L_H.png,large,c,1,1293,0,7,c11_large_sponge_L_H.png,133379,292965,31,Woman
527415,Gabor-Discrimination,v2,jsons/s6_odd.json,-0.4000562301460425,1366,633,1366,768,2-5-2024,20-30-20,2,1,k7,k7_large_kettle_L,k7_large_kettle_L,kettle,L,H,kitchen,1,scaled,k7_large_kettle_L_H.png,large,c,1,1137,1,5,k7_large_kettle_L_H.png,133379,292965,31,Woman
527415,Gabor-Discrimination,v2,jsons/s6_odd.json,-0.9050739884268332,1366,633,1366,768,2-5-2024,20-30-20,2,2,c9,c9_large_eraser_R,c9_large_eraser_R,eraser,R,H,classroom,1,misscaled,c9_large_eraser_R_H.png,large,c,1,969,2,7,c9_large_eraser_R_H.png,133379,292965,31,Woman
527415,Gabor-Discrimination,v2,jsons/s6_odd.json,2.491771647628484,1366,633,1366,768,2-5-2024,20-30-20,2,3,c7,c7_large_spoon_R,c7_large_spoon_R,spoon,R,V,kitchen,0,misscaled,c7_large_spoon_R_V.png,large,m,1,2099,3,6,c7_large_spoon_R_V.png,133379,292965,31,Woman
527415,Gabor-Discrimination,v2,jsons/s6_odd.json,-0.06337772462551564,1366,633,1366,768,2-5-2024,20-30-20,2,4,k11,k11_large_pot_R,k11_large_pot_R,pot,R,V,kitchen,1,scaled,k11_large_pot_R_V.png,large,m,1,1249,4,4,k11_large_pot_R_V.png,133379,292965,31,Woman
527415,Gabor-Discrimination,v2,jsons/s6_odd.json,0.8414457589609006,1366,633,1366,768,2-5-2024,20-30-20,2,5,c1,c1_large_binderclip_L,c1_large_binderclip_L,binderclip,L,V,classroom,1,misscaled,c1_large_binderclip_L_V.png,large,m,1,1550,5,7,c1_large_binderclip_L_V.png,133379,292965,31,Woman
527415,Gabor-Discrimination,v2,jsons/s6_odd.json,0.1891311545148796,1366,633,1366,768,2-5-2024,20-30-20,2,6,c5,c5_large_clipboard_L,c5_large_clipboard_L,clipboard,L,H,classroom,1,scaled,c5_large_clipboard_L_H.png,large,c,1,1333,6,4,c5_large_clipboard_L_H.png,133379,292965,31,Woman
527415,Gabor-Discrimination,v2,jsons/s6_odd.json,-0.222698803130765,1366,633,1366,768,2-5-2024,20-30-20,2,7,c3,c3_large_toaster_L,c3_large_toaster_L,toaster,L,H,kitchen,0,scaled,c3_large_toaster_L_H.png,large,c,1,1196,7,4,c3_large_toaster_L_H.png,133379,292965,31,Woman
527415,Gabor-Discrimination,v2,jsons/s6_odd.json,-1.6746248581880376,1366,633,1366,768,2-5-2024,20-30-20,2,8,k5,k5_large_laptop_L,k5_large_laptop_L,laptop,L,H,classroom,0,scaled,k5_large_laptop_L_H.png,large,c,1,713,8,4,k5_large_laptop_L_H.png,133379,292965,31,Woman
527415,Gabor-Discrimination,v2,jsons/s6_odd.json,0.056864598774672565,1366,633,1366,768,2-5-2024,20-30-20,2,9,k9,k9_large_notebook_R,k9_large_notebook_R,notebook,R,V,classroom,0,scaled,k9_large_notebook_R_V.png,large,m,1,1289,9,5,k9_large_notebook_R_V.png,133379,292965,31,Woman
527415,Gabor-Discrimination,v2,jsons/s6_odd.json,-0.4451471014211132,1366,633,1366,768,2-5-2024,20-30-20,2,10,k3,k3_large_saltshaker_R,k3_large_saltshaker_R,saltshaker,R,V,kitchen,1,misscaled,k3_large_saltshaker_R_V.png,large,m,1,1122,10,7,k3_large_saltshaker_R_V.png,133379,292965,31,Woman
527415,Gabor-Discrimination,v2,jsons/s6_odd.json,0.06287671494468197,1366,633,1366,768,2-5-2024,20-30-20,2,11,k1,k1_large_flashdrive_R,k1_large_flashdrive_R,flashdrive,R,V,classroom,0,misscaled,k1_large_flashdrive_R_V.png,large,m,1,1291,11,7,k1_large_flashdrive_R_V.png,133379,292965,31,Woman
486712,Gabor-Discrimination,v2,jsons/s6_odd.json,-0.08215817010154113,1263,593,1280,720,2-5-2024,21-26-53,1,0,c11,c11_large_sponge_L,c11_large_sponge_L,sponge,L,V,kitchen,0,misscaled,c11_large_sponge_L_V.png,large,m,1,1415,0,7,c11_large_sponge_L_V.png,167709,382496,21,Woman
486712,Gabor-Discrimination,v2,jsons/s6_odd.json,-0.6396436920161774,1263,593,1280,720,2-5-2024,21-26-53,1,1,k7,k7_large_kettle_R,k7_large_kettle_R,kettle,R,V,kitchen,1,scaled,k7_large_kettle_R_V.png,large,m,1,1009,1,4,k7_large_kettle_R_V.png,167709,382496,21,Woman
486712,Gabor-Discrimination,v2,jsons/s6_odd.json,-1.15730881950834,1263,593,1280,720,2-5-2024,21-26-53,1,2,c9,c9_large_eraser_R,c9_large_eraser_R,eraser,R,V,classroom,1,misscaled,c9_large_eraser_R_V.png,large,m,1,632,2,7,c9_large_eraser_R_V.png,167709,382496,21,Woman
486712,Gabor-Discrimination,v2,jsons/s6_odd.json,-0.2537978012328947,1263,593,1280,720,2-5-2024,21-26-53,1,3,c7,c7_large_spoon_L,c7_large_spoon_L,spoon,L,H,kitchen,0,misscaled,c7_large_spoon_L_H.png,large,c,1,1290,3,6,c7_large_spoon_L_H.png,167709,382496,21,Woman
486712,Gabor-Discrimination,v2,jsons/s6_odd.json,0.8570538914492255,1263,593,1280,720,2-5-2024,21-26-53,1,4,k11,k11_large_pot_L,k11_large_pot_L,pot,L,H,kitchen,1,scaled,k11_large_pot_L_H.png,large,c,1,2099,4,4,k11_large_pot_L_H.png,167709,382496,21,Woman
486712,Gabor-Discrimination,v2,jsons/s6_odd.json,-0.7742091628231587,1263,593,1280,720,2-5-2024,21-26-53,1,5,c1,c1_large_binderclip_L,c1_large_binderclip_L,binderclip,L,V,classroom,1,misscaled,c1_large_binderclip_L_V.png,large,m,1,911,5,6,c1_large_binderclip_L_V.png,167709,382496,21,Woman
486712,Gabor-Discrimination,v2,jsons/s6_odd.json,-0.36776651630411344,1263,593,1280,720,2-5-2024,21-26-53,1,6,c5,c5_large_clipboard_L,c5_large_clipboard_L,clipboard,L,H,classroom,1,scaled,c5_large_clipboard_L_H.png,large,c,1,1207,6,5,c5_large_clipboard_L_H.png,167709,382496,21,Woman
486712,Gabor-Discrimination,v2,jsons/s6_odd.json,2.7368511315998094,1263,593,1280,720,2-5-2024,21-26-53,1,7,c3,c3_large_toaster_R,c3_large_toaster_R,toaster,R,H,kitchen,0,scaled,c3_large_toaster_R_H.png,large,c,1,3468,7,5,c3_large_toaster_R_H.png,167709,382496,21,Woman
486712,Gabor-Discrimination,v2,jsons/s6_odd.json,0.037303013165880944,1263,593,1280,720,2-5-2024,21-26-53,1,8,k5,k5_large_laptop_R,k5_large_laptop_R,laptop,R,H,classroom,0,scaled,k5_large_laptop_R_H.png,large,c,1,1502,8,4,k5_large_laptop_R_H.png,167709,382496,21,Woman
486712,Gabor-Discrimination,v2,jsons/s6_odd.json,-0.3856170379417742,1263,593,1280,720,2-5-2024,21-26-53,1,9,k9,k9_large_notebook_L,k9_large_notebook_L,notebook,L,V,classroom,0,scaled,k9_large_notebook_L_V.png,large,m,1,1194,9,4,k9_large_notebook_L_V.png,167709,382496,21,Woman
486712,Gabor-Discrimination,v2,jsons/s6_odd.json,-0.1727838953388958,1263,593,1280,720,2-5-2024,21-26-53,1,10,k3,k3_large_saltshaker_R,k3_large_saltshaker_R,saltshaker,R,V,kitchen,1,misscaled,k3_large_saltshaker_R_V.png,large,m,1,1349,10,7,k3_large_saltshaker_R_V.png,167709,382496,21,Woman
486712,Gabor-Discrimination,v2,jsons/s6_odd.json,0.20207705905198034,1263,593,1280,720,2-5-2024,21-26-53,1,11,k1,k1_large_flashdrive_R,k1_large_flashdrive_R,flashdrive,R,H,classroom,0,misscaled,k1_large_flashdrive_R_H.png,large,c,1,1622,11,7,k1_large_flashdrive_R_H.png,167709,382496,21,Woman
325895,Gabor-Discrimination,v2,jsons/s2_even.json,2.9635236485183847,1528,750,1536,864,2-5-2024,20-28-52,2,0,k10,k10_large_spoon_R,k10_large_spoon_R,spoon,R,H,kitchen,1,misscaled,k10_large_spoon_R_H.png,large,c,1,3589,0,5,k10_large_spoon_R_H.png,142767,323907,34,Woman
325895,Gabor-Discrimination,v2,jsons/s2_even.json,-0.509609466871304,1528,750,1536,864,2-5-2024,20-28-52,2,1,c0,c0_large_eraser_L,c0_large_eraser_L,eraser,L,V,classroom,1,misscaled,c0_large_eraser_L_V.png,large,m,1,1077,1,7,c0_large_eraser_L_V.png,142767,323907,34,Woman
325895,Gabor-Discrimination,v2,jsons/s2_even.json,-0.4570700328009187,1528,750,1536,864,2-5-2024,20-28-52,2,2,k8,k8_large_clipboard_L,k8_large_clipboard_L,clipboard,L,H,classroom,0,scaled,k8_large_clipboard_L_H.png,large,c,1,1115,2,4,k8_large_clipboard_L_H.png,142767,323907,34,Woman
325895,Gabor-Discrimination,v2,jsons/s2_even.json,-0.9299249394343874,1528,750,1536,864,2-5-2024,20-28-52,2,3,c2,c2_large_sponge_L,c2_large_sponge_L,sponge,L,V,kitchen,0,misscaled,c2_large_sponge_L_V.png,large,m,1,773,3,7,c2_large_sponge_L_V.png,142767,323907,34,Woman
325895,Gabor-Discrimination,v2,jsons/s2_even.json,-0.5718272177441289,1528,750,1536,864,2-5-2024,20-28-52,2,4,k6,k6_large_toaster_R,k6_large_toaster_R,toaster,R,H,kitchen,1,scaled,k6_large_toaster_R_H.png,large,c,1,1032,4,4,k6_large_toaster_R_H.png,142767,323907,34,Woman
325895,Gabor-Discrimination,v2,jsons/s2_even.json,0.3130474613360465,1528,750,1536,864,2-5-2024,20-28-52,2,6,k0,k0_large_notebook_R,k0_large_notebook_R,notebook,R,V,classroom,0,scaled,k0_large_notebook_R_V.png,large,m,1,1672,6,4,k0_large_notebook_R_V.png,142767,323907,34,Woman
325895,Gabor-Discrimination,v2,jsons/s2_even.json,-0.37549564832321497,1528,750,1536,864,2-5-2024,20-28-52,2,7,c4,c4_large_flashdrive_R,c4_large_flashdrive_R,flashdrive,R,V,classroom,1,misscaled,c4_large_flashdrive_R_V.png,large,m,1,1174,7,7,c4_large_flashdrive_R_V.png,142767,323907,34,Woman
325895,Gabor-Discrimination,v2,jsons/s2_even.json,-0.11003324459916232,1528,750,1536,864,2-5-2024,20-28-52,2,8,c6,c6_large_saltshaker_R,c6_large_saltshaker_R,saltshaker,R,H,kitchen,0,misscaled,c6_large_saltshaker_R_H.png,large,c,1,1366,8,7,c6_large_saltshaker_R_H.png,142767,323907,34,Woman
325895,Gabor-Discrimination,v2,jsons/s2_even.json,-0.3105126640782646,1528,750,1536,864,2-5-2024,20-28-52,2,9,c10,c10_large_kettle_R,c10_large_kettle_R,kettle,R,V,kitchen,0,scaled,c10_large_kettle_R_V.png,large,m,1,1221,9,4,c10_large_kettle_R_V.png,142767,323907,34,Woman
325895,Gabor-Discrimination,v2,jsons/s2_even.json,0.3130474613360465,1528,750,1536,864,2-5-2024,20-28-52,2,10,k4,k4_large_binderclip_L,k4_large_binderclip_L,binderclip,L,H,classroom,0,misscaled,k4_large_binderclip_L_H.png,large,c,1,1672,10,7,k4_large_binderclip_L_H.png,142767,323907,34,Woman
325895,Gabor-Discrimination,v2,jsons/s2_even.json,0.008871790402236238,1528,750,1536,864,2-5-2024,20-28-52,2,11,c8,c8_large_laptop_L,c8_large_laptop_L,laptop,L,H,classroom,1,scaled,c8_large_laptop_L_H.png,large,c,1,1452,11,4,c8_large_laptop_L_H.png,142767,323907,34,Woman
768413,Gabor-Discrimination,v2,jsons/s10_even.json,1.2787356097303149,1920,945,1920,1080,2-5-2024,23-49-10,2,0,k8,k8_large_flashdrive_R,k8_large_flashdrive_R,flashdrive,R,V,classroom,0,misscaled,k8_large_flashdrive_R_V.png,large,m,1,1853,0,7,k8_large_flashdrive_R_V.png,182579,483095,25,Woman
768413,Gabor-Discrimination,v2,jsons/s10_even.json,-0.9865383733477544,1920,945,1920,1080,2-5-2024,23-49-10,2,1,k0,k0_large_clipboard_R,k0_large_clipboard_R,clipboard,R,V,classroom,0,scaled,k0_large_clipboard_R_V.png,large,m,1,840,1,5,k0_large_clipboard_R_V.png,182579,483095,25,Woman
768413,Gabor-Discrimination,v2,jsons/s10_even.json,-0.4095979117148403,1920,945,1920,1080,2-5-2024,23-49-10,2,2,k2,k2_large_spoon_L,k2_large_spoon_L,spoon,L,H,kitchen,1,misscaled,k2_large_spoon_L_H.png,large,c,1,1098,2,5,k2_large_spoon_L_H.png,182579,483095,25,Woman
768413,Gabor-Discrimination,v2,jsons/s10_even.json,0.11814607644549965,1920,945,1920,1080,2-5-2024,23-49-10,2,3,c8,c8_large_binderclip_L,c8_large_binderclip_L,binderclip,L,V,classroom,1,misscaled,c8_large_binderclip_L_V.png,large,m,1,1334,3,7,c8_large_binderclip_L_V.png,182579,483095,25,Woman
768413,Gabor-Discrimination,v2,jsons/s10_even.json,1.4755215036206113,1920,945,1920,1080,2-5-2024,23-49-10,2,4,c0,c0_large_laptop_R,c0_large_laptop_R,laptop,R,V,classroom,1,scaled,c0_large_laptop_R_V.png,large,m,1,1941,4,4,c0_large_laptop_R_V.png,182579,483095,25,Woman
768413,Gabor-Discrimination,v2,jsons/s10_even.json,-0.711485362569272,1920,945,1920,1080,2-5-2024,23-49-10,2,5,c6,c6_large_pot_L,c6_large_pot_L,pot,L,H,kitchen,0,scaled,c6_large_pot_L_H.png,large,c,1,963,5,4,c6_large_pot_L_H.png,182579,483095,25,Woman
768413,Gabor-Discrimination,v2,jsons/s10_even.json,-0.09205703748277133,1920,945,1920,1080,2-5-2024,23-49-10,2,6,c2,c2_large_kettle_R,c2_large_kettle_R,kettle,R,H,kitchen,0,scaled,c2_large_kettle_R_H.png,large,c,1,1240,6,7,c2_large_kettle_R_H.png,182579,483095,25,Woman
768413,Gabor-Discrimination,v2,jsons/s10_even.json,-1.1676708438604133,1920,945,1920,1080,2-5-2024,23-49-10,2,7,k4,k4_large_eraser_L,k4_large_eraser_L,eraser,L,H,classroom,0,misscaled,k4_large_eraser_L_H.png,large,c,1,759,7,7,k4_large_eraser_L_H.png,182579,483095,25,Woman
768413,Gabor-Discrimination,v2,jsons/s10_even.json,1.822133021268292,1920,945,1920,1080,2-5-2024,23-49-10,2,8,c10,c10_large_toaster_L,c10_large_toaster_L,toaster,L,V,kitchen,0,scaled,c10_large_toaster_L_V.png,large,m,1,2096,8,5,c10_large_toaster_L_V.png,182579,483095,25,Woman
768413,Gabor-Discrimination,v2,jsons/s10_even.json,-0.134544900936358,1920,945,1920,1080,2-5-2024,23-49-10,2,9,k6,k6_large_sponge_L,k6_large_sponge_L,sponge,L,H,kitchen,1,misscaled,k6_large_sponge_L_H.png,large,c,1,1221,9,7,k6_large_sponge_L_H.png,182579,483095,25,Woman
768413,Gabor-Discrimination,v2,jsons/s10_even.json,-0.3671100482612536,1920,945,1920,1080,2-5-2024,23-49-10,2,10,c4,c4_large_notebook_R,c4_large_notebook_R,notebook,R,H,classroom,1,scaled,c4_large_notebook_R_H.png,large,c,1,1117,10,5,c4_large_notebook_R_H.png,182579,483095,25,Woman
768413,Gabor-Discrimination,v2,jsons/s10_even.json,-0.8255317328920573,1920,945,1920,1080,2-5-2024,23-49-10,2,11,k10,k10_large_saltshaker_R,k10_large_saltshaker_R,saltshaker,R,V,kitchen,1,misscaled,k10_large_saltshaker_R_V.png,large,m,1,912,11,7,k10_large_saltshaker_R_V.png,182579,483095,25,Woman
287865,Gabor-Discrimination,v2,jsons/s5_even.json,-0.9738784956957068,1280,632,1280,720,2-6-2024,13-1-20,1,0,c0,c0_large_toaster_L,c0_large_toaster_L,toaster,L,V,kitchen,0,scaled,c0_large_toaster_L_V.png,large,m,1,1201,0,6,c0_large_toaster_L_V.png,137061,360863,22,Woman
287865,Gabor-Discrimination,v2,jsons/s5_even.json,-0.2571183373464892,1280,632,1280,720,2-6-2024,13-1-20,1,1,c10,c10_large_flashdrive_R,c10_large_flashdrive_R,flashdrive,R,H,classroom,1,misscaled,c10_large_flashdrive_R_H.png,large,c,1,1864,1,7,c10_large_flashdrive_R_H.png,137061,360863,22,Woman
287865,Gabor-Discrimination,v2,jsons/s5_even.json,0.7245079428663155,1280,632,1280,720,2-6-2024,13-1-20,1,2,k8,k8_large_pot_L,k8_large_pot_L,pot,L,H,kitchen,1,scaled,k8_large_pot_L_H.png,large,c,1,2772,2,2,k8_large_pot_L_H.png,137061,360863,22,Woman
287865,Gabor-Discrimination,v2,jsons/s5_even.json,-1.149014461989181,1280,632,1280,720,2-6-2024,13-1-20,1,3,c2,c2_large_clipboard_R,c2_large_clipboard_R,clipboard,R,V,classroom,1,scaled,c2_large_clipboard_R_V.png,large,m,1,1039,3,5,c2_large_clipboard_R_V.png,137061,360863,22,Woman
287865,Gabor-Discrimination,v2,jsons/s5_even.json,0.7093727359026819,1280,632,1280,720,2-6-2024,13-1-20,1,5,k2,k2_large_laptop_L,k2_large_laptop_L,laptop,L,V,classroom,0,scaled,k2_large_laptop_L_V.png,large,m,1,2758,5,4,k2_large_laptop_L_V.png,137061,360863,22,Woman
287865,Gabor-Discrimination,v2,jsons/s5_even.json,0.7201835980195631,1280,632,1280,720,2-6-2024,13-1-20,1,6,c4,c4_large_spoon_L,c4_large_spoon_L,spoon,L,H,kitchen,0,misscaled,c4_large_spoon_L_H.png,large,c,1,2768,6,6,c4_large_spoon_L_H.png,137061,360863,22,Woman
287865,Gabor-Discrimination,v2,jsons/s5_even.json,1.4909980669531862,1280,632,1280,720,2-6-2024,13-1-20,1,8,k4,k4_large_kettle_L,k4_large_kettle_L,kettle,L,V,kitchen,1,scaled,k4_large_kettle_L_V.png,large,m,1,3481,8,4,k4_large_kettle_L_V.png,137061,360863,22,Woman
287865,Gabor-Discrimination,v2,jsons/s5_even.json,1.3277540489882815,1280,632,1280,720,2-6-2024,13-1-20,1,9,c8,c8_large_sponge_L,c8_large_sponge_L,sponge,L,V,kitchen,0,misscaled,c8_large_sponge_L_V.png,large,m,1,3330,9,7,c8_large_sponge_L_V.png,137061,360863,22,Woman
287865,Gabor-Discrimination,v2,jsons/s5_even.json,-0.937121564498311,1280,632,1280,720,2-6-2024,13-1-20,1,10,k0,k0_large_saltshaker_R,k0_large_saltshaker_R,saltshaker,R,H,kitchen,1,misscaled,k0_large_saltshaker_R_H.png,large,c,1,1235,10,7,k0_large_saltshaker_R_H.png,137061,360863,22,Woman
