subjID,experimentName,versionName,sequenceName,Z-Scored RT,windowWidth,windowHeight,screenWidth,screenHeight,startDate,startTime,pracTries,trialNum,scene,cannonical_size,size_name,image_name,object,side,gabor,objectCategory,objSceneSemCong,scale,image,presentationSize,keyPress,accuracy,RT,ratingTrialNum,rating,thisRatingTrialFile,experimentTime,totalTime,age,gender
693191,Gabor-Discrimination,v2,jsons/s3_even.json,-0.691265097,1436,808,1436,808,2/6/24,0-56-35,1,0,k10,large,k10_large_clipboard_L,k10_large_clipboard_L,clipboard,L,V,classroom,0,scaled,k10_large_clipboard_L_V.png,large,m,1,723,0,4,k10_large_clipboard_L_V.png,130168,332775,29,Man
693191,Gabor-Discrimination,v2,jsons/s3_even.json,-0.766659118,1436,808,1436,808,2/6/24,0-56-35,1,1,k4,large,k4_large_pot_L,k4_large_pot_L,pot,L,H,kitchen,1,scaled,k4_large_pot_L_H.png,large,m,0,682,1,5,k4_large_pot_L_H.png,130168,332775,29,Man
693191,Gabor-Discrimination,v2,jsons/s3_even.json,2.267490498774913,1436,808,1436,808,2/6/24,0-56-35,1,2,c6,small,c6_large_flashdrive_L,c6_large_flashdrive_L,flashdrive,L,H,classroom,1,misscaled,c6_large_flashdrive_L_H.png,large,c,1,2332,2,7,c6_large_flashdrive_L_H.png,130168,332775,29,Man
693191,Gabor-Discrimination,v2,jsons/s3_even.json,-0.562543598,1436,808,1436,808,2/6/24,0-56-35,1,3,c4,small,c4_large_sponge_L,c4_large_sponge_L,sponge,L,H,kitchen,0,misscaled,c4_large_sponge_L_H.png,large,c,1,793,3,6,c4_large_sponge_L_H.png,130168,332775,29,Man
693191,Gabor-Discrimination,v2,jsons/s3_even.json,-0.042140967,1436,808,1436,808,2/6/24,0-56-35,1,4,c0,small,c0_large_spoon_R,c0_large_spoon_R,spoon,R,V,kitchen,0,misscaled,c0_large_spoon_R_V.png,large,m,1,1076,4,6,c0_large_spoon_R_V.png,130168,332775,29,Man
693191,Gabor-Discrimination,v2,jsons/s3_even.json,-0.297745086,1436,808,1436,808,2/6/24,0-56-35,1,5,k8,large,k8_large_toaster_R,k8_large_toaster_R,toaster,R,V,kitchen,1,scaled,k8_large_toaster_R_V.png,large,m,1,937,5,4,k8_large_toaster_R_V.png,130168,332775,29,Man
693191,Gabor-Discrimination,v2,jsons/s3_even.json,-0.525766027,1436,808,1436,808,2/6/24,0-56-35,1,6,c8,small,c8_large_saltshaker_R,c8_large_saltshaker_R,saltshaker,R,V,kitchen,0,misscaled,c8_large_saltshaker_R_V.png,large,m,1,813,6,7,c8_large_saltshaker_R_V.png,130168,332775,29,Man
693191,Gabor-Discrimination,v2,jsons/s3_even.json,-0.316133872,1436,808,1436,808,2/6/24,0-56-35,1,7,k0,large,k0_large_kettle_R,k0_large_kettle_R,kettle,R,V,kitchen,1,scaled,k0_large_kettle_R_V.png,large,m,1,927,7,5,k0_large_kettle_R_V.png,130168,332775,29,Man
693191,Gabor-Discrimination,v2,jsons/s3_even.json,0.046125203766388234,1436,808,1436,808,2/6/24,0-56-35,1,8,k6,small,k6_large_binderclip_R,k6_large_binderclip_R,binderclip,R,H,classroom,0,misscaled,k6_large_binderclip_R_H.png,large,c,1,1124,8,7,k6_large_binderclip_R_H.png,130168,332775,29,Man
693191,Gabor-Discrimination,v2,jsons/s3_even.json,1.8739704879041972,1436,808,1436,808,2/6/24,0-56-35,1,9,c2,small,c2_large_eraser_L,c2_large_eraser_L,eraser,L,H,classroom,1,misscaled,c2_large_eraser_L_H.png,large,c,1,2118,9,7,c2_large_eraser_L_H.png,130168,332775,29,Man
693191,Gabor-Discrimination,v2,jsons/s3_even.json,-0.564382477,1436,808,1436,808,2/6/24,0-56-35,1,10,c10,large,c10_large_laptop_R,c10_large_laptop_R,laptop,R,V,classroom,1,scaled,c10_large_laptop_R_V.png,large,m,1,792,10,4,c10_large_laptop_R_V.png,130168,332775,29,Man
693191,Gabor-Discrimination,v2,jsons/s3_even.json,-0.420949949,1436,808,1436,808,2/6/24,0-56-35,1,11,k2,large,k2_large_notebook_L,k2_large_notebook_L,notebook,L,H,classroom,0,scaled,k2_large_notebook_L_H.png,large,c,1,870,11,5,k2_large_notebook_L_H.png,130168,332775,29,Man
830827,Gabor-Discrimination,v2,jsons/s0_odd.json,2.2099321899433138,1280,720,1920,1080,2/5/24,0-22-42,2,0,c11,large,c11_large_pot_R,c11_large_pot_R,pot,R,H,kitchen,0,scaled,c11_large_pot_R_H.png,large,c,1,3705,0,4,c11_large_pot_R_H.png,151876,502130,23,Non-binary
830827,Gabor-Discrimination,v2,jsons/s0_odd.json,-0.403240673,1280,720,1920,1080,2/5/24,0-22-42,2,1,k3,large,k3_large_toaster_L,k3_large_toaster_L,toaster,L,H,kitchen,1,scaled,k3_large_toaster_L_H.png,large,c,1,1594,1,5,k3_large_toaster_L_H.png,151876,502130,23,Non-binary
830827,Gabor-Discrimination,v2,jsons/s0_odd.json,0.1872299362716293,1280,720,1920,1080,2/5/24,0-22-42,2,2,k11,small,k11_large_sponge_R,k11_large_sponge_R,sponge,R,H,kitchen,1,misscaled,k11_large_sponge_R_H.png,large,c,1,2071,2,6,k11_large_sponge_R_H.png,151876,502130,23,Non-binary
830827,Gabor-Discrimination,v2,jsons/s0_odd.json,-0.008355716,1280,720,1920,1080,2/5/24,0-22-42,2,3,k9,small,k9_large_eraser_R,k9_large_eraser_R,eraser,R,V,classroom,0,misscaled,k9_large_eraser_R_V.png,large,m,1,1913,3,7,k9_large_eraser_R_V.png,151876,502130,23,Non-binary
830827,Gabor-Discrimination,v2,jsons/s0_odd.json,-0.442852957,1280,720,1920,1080,2/5/24,0-22-42,2,4,k7,small,k7_large_spoon_L,k7_large_spoon_L,spoon,L,H,kitchen,1,misscaled,k7_large_spoon_L_H.png,large,c,1,1562,4,7,k7_large_spoon_L_H.png,151876,502130,23,Non-binary
830827,Gabor-Discrimination,v2,jsons/s0_odd.json,0.5177449312106377,1280,720,1920,1080,2/5/24,0-22-42,2,5,c7,large,c7_large_kettle_L,c7_large_kettle_L,kettle,L,H,kitchen,0,scaled,c7_large_kettle_L_H.png,large,c,1,2338,5,4,c7_large_kettle_L_H.png,151876,502130,23,Non-binary
830827,Gabor-Discrimination,v2,jsons/s0_odd.json,-0.669385706,1280,720,1920,1080,2/5/24,0-22-42,2,6,c9,large,c9_large_notebook_L,c9_large_notebook_L,notebook,L,V,classroom,1,scaled,c9_large_notebook_L_V.png,large,m,1,1379,6,4,c9_large_notebook_L_V.png,151876,502130,23,Non-binary
830827,Gabor-Discrimination,v2,jsons/s0_odd.json,-0.63224919,1280,720,1920,1080,2/5/24,0-22-42,2,7,c3,small,c3_large_saltshaker_R,c3_large_saltshaker_R,saltshaker,R,H,kitchen,0,misscaled,c3_large_saltshaker_R_H.png,large,c,1,1409,7,7,c3_large_saltshaker_R_H.png,151876,502130,23,Non-binary
830827,Gabor-Discrimination,v2,jsons/s0_odd.json,-0.794411978,1280,720,1920,1080,2/5/24,0-22-42,2,8,c5,large,c5_large_laptop_R,c5_large_laptop_R,laptop,R,V,classroom,1,scaled,c5_large_laptop_R_V.png,large,m,1,1278,8,3,c5_large_laptop_R_V.png,151876,502130,23,Non-binary
830827,Gabor-Discrimination,v2,jsons/s0_odd.json,1.6256510003882128,1280,720,1920,1080,2/5/24,0-22-42,2,9,k1,small,k1_large_binderclip_L,k1_large_binderclip_L,binderclip,L,V,classroom,0,misscaled,k1_large_binderclip_L_V.png,large,m,1,3233,9,7,k1_large_binderclip_L_V.png,151876,502130,23,Non-binary
830827,Gabor-Discrimination,v2,jsons/s0_odd.json,-0.60996728,1280,720,1920,1080,2/5/24,0-22-42,2,10,c1,small,c1_large_flashdrive_L,c1_large_flashdrive_L,flashdrive,L,V,classroom,1,misscaled,c1_large_flashdrive_L_V.png,large,m,1,1427,10,7,c1_large_flashdrive_L_V.png,151876,502130,23,Non-binary
830827,Gabor-Discrimination,v2,jsons/s0_odd.json,-0.980094559,1280,720,1920,1080,2/5/24,0-22-42,2,11,k5,large,k5_large_clipboard_R,k5_large_clipboard_R,clipboard,R,V,classroom,0,scaled,k5_large_clipboard_R_V.png,large,m,1,1128,11,5,k5_large_clipboard_R_V.png,151876,502130,23,Non-binary
840050,Gabor-Discrimination,v2,jsons/s8_even.json,2.4162120709750994,1536,742,1536,864,2/5/24,23-56-52,2,0,k6,small,k6_large_saltshaker_R,k6_large_saltshaker_R,saltshaker,R,V,kitchen,1,misscaled,k6_large_saltshaker_R_V.png,large,m,1,1796,0,7,k6_large_saltshaker_R_V.png,138936,394376,22,Woman
840050,Gabor-Discrimination,v2,jsons/s8_even.json,0.5519435441633941,1536,742,1536,864,2/5/24,23-56-52,2,1,c6,large,c6_large_toaster_L,c6_large_toaster_L,toaster,L,H,kitchen,0,scaled,c6_large_toaster_L_H.png,large,c,1,1237,1,5,c6_large_toaster_L_H.png,138936,394376,22,Woman
840050,Gabor-Discrimination,v2,jsons/s8_even.json,-0.325163115,1536,742,1536,864,2/5/24,23-56-52,2,2,k8,large,k8_large_laptop_R,k8_large_laptop_R,laptop,R,V,classroom,0,scaled,k8_large_laptop_R_V.png,large,m,1,974,2,4,k8_large_laptop_R_V.png,138936,394376,22,Woman
840050,Gabor-Discrimination,v2,jsons/s8_even.json,0.4285483107250522,1536,742,1536,864,2/5/24,23-56-52,2,3,k0,small,k0_large_eraser_R,k0_large_eraser_R,eraser,R,V,classroom,0,misscaled,k0_large_eraser_R_V.png,large,m,1,1200,3,7,k0_large_eraser_R_V.png,138936,394376,22,Woman
840050,Gabor-Discrimination,v2,jsons/s8_even.json,-0.525263494,1536,742,1536,864,2/5/24,23-56-52,2,4,c0,large,c0_large_notebook_R,c0_large_notebook_R,notebook,R,H,classroom,1,scaled,c0_large_notebook_R_H.png,large,c,1,914,4,4,c0_large_notebook_R_H.png,138936,394376,22,Woman
840050,Gabor-Discrimination,v2,jsons/s8_even.json,-0.428548311,1536,742,1536,864,2/5/24,23-56-52,2,5,c8,large,c8_large_clipboard_L,c8_large_clipboard_L,clipboard,L,H,classroom,1,scaled,c8_large_clipboard_L_H.png,large,c,1,943,5,5,c8_large_clipboard_L_H.png,138936,394376,22,Woman
840050,Gabor-Discrimination,v2,jsons/s8_even.json,-1.172254718,1536,742,1536,864,2/5/24,23-56-52,2,6,k4,small,k4_large_flashdrive_L,k4_large_flashdrive_L,flashdrive,L,V,classroom,0,misscaled,k4_large_flashdrive_L_V.png,large,m,1,720,6,7,k4_large_flashdrive_L_V.png,138936,394376,22,Woman
840050,Gabor-Discrimination,v2,jsons/s8_even.json,-0.875439156,1536,742,1536,864,2/5/24,23-56-52,2,7,c2,large,c2_large_pot_R,c2_large_pot_R,pot,R,V,kitchen,0,scaled,c2_large_pot_R_V.png,large,m,1,809,7,7,c2_large_pot_R_V.png,138936,394376,22,Woman
840050,Gabor-Discrimination,v2,jsons/s8_even.json,-1.085544554,1536,742,1536,864,2/5/24,23-56-52,2,8,k10,large,k10_large_kettle_L,k10_large_kettle_L,kettle,L,H,kitchen,1,scaled,k10_large_kettle_L_H.png,large,c,1,746,8,4,k10_large_kettle_L_H.png,138936,394376,22,Woman
840050,Gabor-Discrimination,v2,jsons/s8_even.json,-0.168417819,1536,742,1536,864,2/5/24,23-56-52,2,9,c4,small,c4_large_binderclip_L,c4_large_binderclip_L,binderclip,L,H,classroom,1,misscaled,c4_large_binderclip_L_H.png,large,c,1,1021,9,7,c4_large_binderclip_L_H.png,138936,394376,22,Woman
840050,Gabor-Discrimination,v2,jsons/s8_even.json,0.7653839479486341,1536,742,1536,864,2/5/24,23-56-52,2,10,c10,small,c10_large_spoon_R,c10_large_spoon_R,spoon,R,V,kitchen,0,misscaled,c10_large_spoon_R_V.png,large,m,1,1301,10,7,c10_large_spoon_R_V.png,138936,394376,22,Woman
840050,Gabor-Discrimination,v2,jsons/s8_even.json,0.4185432917976191,1536,742,1536,864,2/5/24,23-56-52,2,11,k2,small,k2_large_sponge_L,k2_large_sponge_L,sponge,L,H,kitchen,1,misscaled,k2_large_sponge_L_H.png,large,c,1,1197,11,7,k2_large_sponge_L_H.png,138936,394376,22,Woman
247187,Gabor-Discrimination,v2,jsons/s8_even.json,1.5693488459071108,1536,791,1536,960,2/6/24,12/3/03,1,0,k6,small,k6_large_saltshaker_R,k6_large_saltshaker_R,saltshaker,R,H,kitchen,1,misscaled,k6_large_saltshaker_R_H.png,large,c,1,1793,0,5,k6_large_saltshaker_R_H.png,145915,244927,23,Woman
247187,Gabor-Discrimination,v2,jsons/s8_even.json,1.0983872049213157,1536,791,1536,960,2/6/24,12/3/03,1,1,c6,large,c6_large_toaster_L,c6_large_toaster_L,toaster,L,V,kitchen,0,scaled,c6_large_toaster_L_V.png,large,m,1,1643,1,5,c6_large_toaster_L_V.png,145915,244927,23,Woman
247187,Gabor-Discrimination,v2,jsons/s8_even.json,0.15646392294972505,1536,791,1536,960,2/6/24,12/3/03,1,2,k8,large,k8_large_laptop_R,k8_large_laptop_R,laptop,R,H,classroom,0,scaled,k8_large_laptop_R_H.png,large,c,1,1343,2,4,k8_large_laptop_R_H.png,145915,244927,23,Woman
247187,Gabor-Discrimination,v2,jsons/s8_even.json,-1.369451794,1536,791,1536,960,2/6/24,12/3/03,1,3,k0,small,k0_large_eraser_R,k0_large_eraser_R,eraser,R,H,classroom,0,misscaled,k0_large_eraser_R_H.png,large,c,1,857,3,7,k0_large_eraser_R_H.png,145915,244927,23,Woman
247187,Gabor-Discrimination,v2,jsons/s8_even.json,-1.331774863,1536,791,1536,960,2/6/24,12/3/03,1,4,c0,large,c0_large_notebook_L,c0_large_notebook_L,notebook,L,V,classroom,1,scaled,c0_large_notebook_L_V.png,large,m,1,869,4,5,c0_large_notebook_L_V.png,145915,244927,23,Woman
247187,Gabor-Discrimination,v2,jsons/s8_even.json,-0.967564527,1536,791,1536,960,2/6/24,12/3/03,1,5,c8,large,c8_large_clipboard_R,c8_large_clipboard_R,clipboard,R,H,classroom,1,scaled,c8_large_clipboard_R_H.png,large,c,1,985,5,7,c8_large_clipboard_R_H.png,145915,244927,23,Woman
247187,Gabor-Discrimination,v2,jsons/s8_even.json,-0.411829791,1536,791,1536,960,2/6/24,12/3/03,1,6,k4,small,k4_large_flashdrive_L,k4_large_flashdrive_L,flashdrive,L,V,classroom,0,misscaled,k4_large_flashdrive_L_V.png,large,m,1,1162,6,7,k4_large_flashdrive_L_V.png,145915,244927,23,Woman
247187,Gabor-Discrimination,v2,jsons/s8_even.json,0.9633782011720542,1536,791,1536,960,2/6/24,12/3/03,1,7,c2,large,c2_large_pot_L,c2_large_pot_L,pot,L,V,kitchen,0,scaled,c2_large_pot_L_V.png,large,m,1,1600,7,4,c2_large_pot_L_V.png,145915,244927,23,Woman
247187,Gabor-Discrimination,v2,jsons/s8_even.json,-0.86709271,1536,791,1536,960,2/6/24,12/3/03,1,8,k10,large,k10_large_kettle_R,k10_large_kettle_R,kettle,R,V,kitchen,1,scaled,k10_large_kettle_R_V.png,large,m,1,1017,8,3,k10_large_kettle_R_V.png,145915,244927,23,Woman
247187,Gabor-Discrimination,v2,jsons/s8_even.json,0.005756198,1536,791,1536,960,2/6/24,12/3/03,1,9,c4,small,c4_large_binderclip_R,c4_large_binderclip_R,binderclip,R,H,classroom,1,misscaled,c4_large_binderclip_R_H.png,large,c,1,1295,9,7,c4_large_binderclip_R_H.png,145915,244927,23,Woman
247187,Gabor-Discrimination,v2,jsons/s8_even.json,0.8974435714340429,1536,791,1536,960,2/6/24,12/3/03,1,10,c10,small,c10_large_spoon_L,c10_large_spoon_L,spoon,L,H,kitchen,0,misscaled,c10_large_spoon_L_H.png,large,m,0,1579,10,7,c10_large_spoon_L_H.png,145915,244927,23,Woman
247187,Gabor-Discrimination,v2,jsons/s8_even.json,0.25693573969336136,1536,791,1536,960,2/6/24,12/3/03,1,11,k2,small,k2_large_sponge_L,k2_large_sponge_L,sponge,L,V,kitchen,1,misscaled,k2_large_sponge_L_V.png,large,m,1,1375,11,7,k2_large_sponge_L_V.png,145915,244927,23,Woman
390396,Gabor-Discrimination,v2,jsons/s1_even.json,0.6819316513285091,1536,695,1536,864,2/6/24,19-13-2,2,0,c4,small,c4_large_saltshaker_L,c4_large_saltshaker_L,saltshaker,L,V,kitchen,0,misscaled,c4_large_saltshaker_L_V.png,large,m,1,1836,0,7,c4_large_saltshaker_L_V.png,189835,464666,47,Man
390396,Gabor-Discrimination,v2,jsons/s1_even.json,-0.53753109,1536,695,1536,864,2/6/24,19-13-2,2,1,k0,large,k0_large_pot_L,k0_large_pot_L,pot,L,H,kitchen,1,scaled,k0_large_pot_L_H.png,large,c,1,1273,1,4,k0_large_pot_L_H.png,189835,464666,47,Man
390396,Gabor-Discrimination,v2,jsons/s1_even.json,-0.444392728,1536,695,1536,864,2/6/24,19-13-2,2,2,k8,small,k8_large_spoon_L,k8_large_spoon_L,spoon,L,V,kitchen,1,misscaled,k8_large_spoon_L_V.png,large,m,1,1316,2,7,k8_large_spoon_L_V.png,189835,464666,47,Man
390396,Gabor-Discrimination,v2,jsons/s1_even.json,1.5505010282985423,1536,695,1536,864,2/6/24,19-13-2,2,3,k2,small,k2_large_binderclip_R,k2_large_binderclip_R,binderclip,R,H,classroom,0,misscaled,k2_large_binderclip_R_H.png,large,c,1,2237,3,7,k2_large_binderclip_R_H.png,189835,464666,47,Man
390396,Gabor-Discrimination,v2,jsons/s1_even.json,-0.710811764,1536,695,1536,864,2/6/24,19-13-2,2,4,c8,large,c8_large_kettle_L,c8_large_kettle_L,kettle,L,V,kitchen,0,scaled,c8_large_kettle_L_V.png,large,m,1,1193,4,6,c8_large_kettle_L_V.png,189835,464666,47,Man
390396,Gabor-Discrimination,v2,jsons/s1_even.json,-0.628503444,1536,695,1536,864,2/6/24,19-13-2,2,5,k6,large,k6_large_clipboard_R,k6_large_clipboard_R,clipboard,R,H,classroom,0,scaled,k6_large_clipboard_R_H.png,large,c,1,1231,5,5,k6_large_clipboard_R_H.png,189835,464666,47,Man
390396,Gabor-Discrimination,v2,jsons/s1_even.json,0.7534099292337737,1536,695,1536,864,2/6/24,19-13-2,2,6,c2,small,c2_large_flashdrive_R,c2_large_flashdrive_R,flashdrive,R,V,classroom,1,misscaled,c2_large_flashdrive_R_V.png,large,m,1,1869,6,7,c2_large_flashdrive_R_V.png,189835,464666,47,Man
390396,Gabor-Discrimination,v2,jsons/s1_even.json,-0.600345334,1536,695,1536,864,2/6/24,19-13-2,2,7,k10,small,k10_large_eraser_L,k10_large_eraser_L,eraser,L,V,classroom,0,misscaled,k10_large_eraser_L_V.png,large,m,1,1244,7,7,k10_large_eraser_L_V.png,189835,464666,47,Man
390396,Gabor-Discrimination,v2,jsons/s1_even.json,-1.239317818,1536,695,1536,864,2/6/24,19-13-2,2,8,c0,small,c0_large_sponge_R,c0_large_sponge_R,sponge,R,H,kitchen,0,misscaled,c0_large_sponge_R_H.png,large,c,1,949,8,7,c0_large_sponge_R_H.png,189835,464666,47,Man
390396,Gabor-Discrimination,v2,jsons/s1_even.json,1.9858687209942452,1536,695,1536,864,2/6/24,19-13-2,2,9,c6,large,c6_large_laptop_R,c6_large_laptop_R,laptop,R,H,classroom,1,scaled,c6_large_laptop_R_H.png,large,c,1,2438,9,4,c6_large_laptop_R_H.png,189835,464666,47,Man
390396,Gabor-Discrimination,v2,jsons/s1_even.json,-0.342590332,1536,695,1536,864,2/6/24,19-13-2,2,10,c10,large,c10_large_notebook_R,c10_large_notebook_R,notebook,R,H,classroom,1,scaled,c10_large_notebook_R_H.png,large,c,1,1363,10,7,c10_large_notebook_R_H.png,189835,464666,47,Man
390396,Gabor-Discrimination,v2,jsons/s1_even.json,-0.46821882,1536,695,1536,864,2/6/24,19-13-2,2,11,k4,large,k4_large_toaster_L,k4_large_toaster_L,toaster,L,V,kitchen,1,scaled,k4_large_toaster_L_V.png,large,m,1,1305,11,5,k4_large_toaster_L_V.png,189835,464666,47,Man
569628,Gabor-Discrimination,v2,jsons/s0_odd.json,1.9814346672455516,1920,911,1920,1080,2/6/24,12/6/31,1,0,c11,large,c11_large_pot_R,c11_large_pot_R,pot,R,H,kitchen,0,scaled,c11_large_pot_R_H.png,large,c,1,2961,0,4,c11_large_pot_R_H.png,121595,266423,30,Woman
569628,Gabor-Discrimination,v2,jsons/s0_odd.json,-0.039695222,1920,911,1920,1080,2/6/24,12/6/31,1,1,k3,large,k3_large_toaster_L,k3_large_toaster_L,toaster,L,V,kitchen,1,scaled,k3_large_toaster_L_V.png,large,m,1,1442,1,4,k3_large_toaster_L_V.png,121595,266423,30,Woman
569628,Gabor-Discrimination,v2,jsons/s0_odd.json,2.147755428346186,1920,911,1920,1080,2/6/24,12/6/31,1,2,k11,small,k11_large_sponge_R,k11_large_sponge_R,sponge,R,H,kitchen,1,misscaled,k11_large_sponge_R_H.png,large,c,1,3086,2,4,k11_large_sponge_R_H.png,121595,266423,30,Woman
569628,Gabor-Discrimination,v2,jsons/s0_odd.json,-0.041025788,1920,911,1920,1080,2/6/24,12/6/31,1,3,k9,small,k9_large_eraser_L,k9_large_eraser_L,eraser,L,H,classroom,0,misscaled,k9_large_eraser_L_H.png,large,c,1,1441,3,5,k9_large_eraser_L_H.png,121595,266423,30,Woman
569628,Gabor-Discrimination,v2,jsons/s0_odd.json,-0.371006178,1920,911,1920,1080,2/6/24,12/6/31,1,4,k7,small,k7_large_spoon_L,k7_large_spoon_L,spoon,L,V,kitchen,1,misscaled,k7_large_spoon_L_V.png,large,m,1,1193,4,5,k7_large_spoon_L_V.png,121595,266423,30,Woman
569628,Gabor-Discrimination,v2,jsons/s0_odd.json,-0.091587299,1920,911,1920,1080,2/6/24,12/6/31,1,5,c7,large,c7_large_kettle_R,c7_large_kettle_R,kettle,R,V,kitchen,0,scaled,c7_large_kettle_R_V.png,large,m,1,1403,5,4,c7_large_kettle_R_V.png,121595,266423,30,Woman
569628,Gabor-Discrimination,v2,jsons/s0_odd.json,-0.490757126,1920,911,1920,1080,2/6/24,12/6/31,1,6,c9,large,c9_large_notebook_R,c9_large_notebook_R,notebook,R,H,classroom,1,scaled,c9_large_notebook_R_H.png,large,c,1,1103,6,4,c9_large_notebook_R_H.png,121595,266423,30,Woman
569628,Gabor-Discrimination,v2,jsons/s0_odd.json,-0.474790333,1920,911,1920,1080,2/6/24,12/6/31,1,7,c3,small,c3_large_saltshaker_R,c3_large_saltshaker_R,saltshaker,R,V,kitchen,0,misscaled,c3_large_saltshaker_R_V.png,large,m,1,1115,7,6,c3_large_saltshaker_R_V.png,121595,266423,30,Woman
569628,Gabor-Discrimination,v2,jsons/s0_odd.json,-0.492087692,1920,911,1920,1080,2/6/24,12/6/31,1,8,c5,large,c5_large_laptop_L,c5_large_laptop_L,laptop,L,V,classroom,1,scaled,c5_large_laptop_L_V.png,large,m,1,1102,8,4,c5_large_laptop_L_V.png,121595,266423,30,Woman
569628,Gabor-Discrimination,v2,jsons/s0_odd.json,-0.807431855,1920,911,1920,1080,2/6/24,12/6/31,1,9,k1,small,k1_large_binderclip_L,k1_large_binderclip_L,binderclip,L,V,classroom,0,misscaled,k1_large_binderclip_L_V.png,large,m,1,865,9,7,k1_large_binderclip_L_V.png,121595,266423,30,Woman
569628,Gabor-Discrimination,v2,jsons/s0_odd.json,-0.461484672,1920,911,1920,1080,2/6/24,12/6/31,1,10,c1,small,c1_large_flashdrive_R,c1_large_flashdrive_R,flashdrive,R,H,classroom,1,misscaled,c1_large_flashdrive_R_H.png,large,c,1,1125,10,7,c1_large_flashdrive_R_H.png,121595,266423,30,Woman
569628,Gabor-Discrimination,v2,jsons/s0_odd.json,-0.859323932,1920,911,1920,1080,2/6/24,12/6/31,1,11,k5,large,k5_large_clipboard_L,k5_large_clipboard_L,clipboard,L,H,classroom,0,scaled,k5_large_clipboard_L_H.png,large,c,1,826,11,4,k5_large_clipboard_L_H.png,121595,266423,30,Woman
177433,Gabor-Discrimination,v2,jsons/s4_even.json,0.085715989,1366,768,1366,768,2/5/24,17-28-49,1,0,k0,large,k0_large_laptop_R,k0_large_laptop_R,laptop,R,H,classroom,0,scaled,k0_large_laptop_R_H.png,large,c,1,1629,0,4,k0_large_laptop_R_H.png,148230,291856,28,Man
177433,Gabor-Discrimination,v2,jsons/s4_even.json,-0.714020477,1366,768,1366,768,2/5/24,17-28-49,1,1,k4,large,k4_large_notebook_L,k4_large_notebook_L,notebook,L,H,classroom,0,scaled,k4_large_notebook_L_H.png,large,c,1,993,1,5,k4_large_notebook_L_H.png,148230,291856,28,Man
177433,Gabor-Discrimination,v2,jsons/s4_even.json,-0.776892841,1366,768,1366,768,2/5/24,17-28-49,1,2,c0,large,c0_large_clipboard_L,c0_large_clipboard_L,clipboard,L,V,classroom,1,scaled,c0_large_clipboard_L_V.png,large,m,1,943,2,4,c0_large_clipboard_L_V.png,148230,291856,28,Man
177433,Gabor-Discrimination,v2,jsons/s4_even.json,-0.315409691,1366,768,1366,768,2/5/24,17-28-49,1,3,k8,small,k8_large_binderclip_L,k8_large_binderclip_L,binderclip,L,H,classroom,0,misscaled,k8_large_binderclip_L_H.png,large,c,1,1310,3,7,k8_large_binderclip_L_H.png,148230,291856,28,Man
177433,Gabor-Discrimination,v2,jsons/s4_even.json,2.726355263623665,1366,768,1366,768,2/5/24,17-28-49,1,4,c8,small,c8_large_flashdrive_R,c8_large_flashdrive_R,flashdrive,R,H,classroom,1,misscaled,c8_large_flashdrive_R_H.png,large,c,1,3729,4,7,c8_large_flashdrive_R_H.png,148230,291856,28,Man
177433,Gabor-Discrimination,v2,jsons/s4_even.json,-0.702703451,1366,768,1366,768,2/5/24,17-28-49,1,5,c10,small,c10_large_saltshaker_L,c10_large_saltshaker_L,saltshaker,L,V,kitchen,0,misscaled,c10_large_saltshaker_L_V.png,large,m,1,1002,5,7,c10_large_saltshaker_L_V.png,148230,291856,28,Man
177433,Gabor-Discrimination,v2,jsons/s4_even.json,0.445345909,1366,768,1366,768,2/5/24,17-28-49,1,6,c6,small,c6_large_sponge_R,c6_large_sponge_R,sponge,R,H,kitchen,0,misscaled,c6_large_sponge_R_H.png,large,c,1,1915,6,7,c6_large_sponge_R_H.png,148230,291856,28,Man
177433,Gabor-Discrimination,v2,jsons/s4_even.json,-0.373252266,1366,768,1366,768,2/5/24,17-28-49,1,7,k10,large,k10_large_toaster_L,k10_large_toaster_L,toaster,L,V,kitchen,1,scaled,k10_large_toaster_L_V.png,large,m,1,1264,7,4,k10_large_toaster_L_V.png,148230,291856,28,Man
177433,Gabor-Discrimination,v2,jsons/s4_even.json,0.8376694587365506,1366,768,1366,768,2/5/24,17-28-49,1,8,c2,small,c2_large_spoon_R,c2_large_spoon_R,spoon,R,V,kitchen,0,misscaled,c2_large_spoon_R_V.png,large,m,1,2227,8,7,c2_large_spoon_R_V.png,148230,291856,28,Man
177433,Gabor-Discrimination,v2,jsons/s4_even.json,-0.70773324,1366,768,1366,768,2/5/24,17-28-49,1,9,c4,small,c4_large_eraser_R,c4_large_eraser_R,eraser,R,V,classroom,1,misscaled,c4_large_eraser_R_V.png,large,m,1,998,9,7,c4_large_eraser_R_V.png,148230,291856,28,Man
177433,Gabor-Discrimination,v2,jsons/s4_even.json,0.051764913,1366,768,1366,768,2/5/24,17-28-49,1,10,k6,large,k6_large_pot_R,k6_large_pot_R,pot,R,V,kitchen,1,scaled,k6_large_pot_R_V.png,large,m,1,1602,10,4,k6_large_pot_R_V.png,148230,291856,28,Man
177433,Gabor-Discrimination,v2,jsons/s4_even.json,-0.556839568,1366,768,1366,768,2/5/24,17-28-49,1,11,k2,large,k2_large_kettle_L,k2_large_kettle_L,kettle,L,H,kitchen,1,scaled,k2_large_kettle_L_H.png,large,c,1,1118,11,4,k2_large_kettle_L_H.png,148230,291856,28,Man
376176,Gabor-Discrimination,v2,jsons/s8_odd.json,2.5384877681533045,1536,695,1536,864,2/6/24,17-10-45,2,0,k7,small,k7_large_saltshaker_R,k7_large_saltshaker_R,saltshaker,R,V,kitchen,1,misscaled,k7_large_saltshaker_R_V.png,large,m,1,3511,0,7,k7_large_saltshaker_R_V.png,163170,496942,48,Donna
376176,Gabor-Discrimination,v2,jsons/s8_odd.json,0.2431977791867153,1536,695,1536,864,2/6/24,17-10-45,2,1,c9,large,c9_large_clipboard_R,c9_large_clipboard_R,clipboard,R,V,classroom,1,scaled,c9_large_clipboard_R_V.png,large,m,1,1787,1,4,c9_large_clipboard_R_V.png,163170,496942,48,Donna
376176,Gabor-Discrimination,v2,jsons/s8_odd.json,0.094083812,1536,695,1536,864,2/6/24,17-10-45,2,2,k9,large,k9_large_laptop_L,k9_large_laptop_L,laptop,L,H,classroom,0,scaled,k9_large_laptop_L_H.png,large,c,1,1675,2,4,k9_large_laptop_L_H.png,163170,496942,48,Donna
376176,Gabor-Discrimination,v2,jsons/s8_odd.json,-0.43580332,1536,695,1536,864,2/6/24,17-10-45,2,3,k1,small,k1_large_eraser_R,k1_large_eraser_R,eraser,R,V,classroom,0,misscaled,k1_large_eraser_R_V.png,large,m,1,1277,3,7,k1_large_eraser_R_V.png,163170,496942,48,Donna
376176,Gabor-Discrimination,v2,jsons/s8_odd.json,-0.43314057,1536,695,1536,864,2/6/24,17-10-45,2,4,c3,large,c3_large_pot_L,c3_large_pot_L,pot,L,H,kitchen,0,scaled,c3_large_pot_L_H.png,large,c,1,1279,4,4,c3_large_pot_L_H.png,163170,496942,48,Donna
376176,Gabor-Discrimination,v2,jsons/s8_odd.json,-0.538319172,1536,695,1536,864,2/6/24,17-10-45,2,5,c7,large,c7_large_toaster_L,c7_large_toaster_L,toaster,L,H,kitchen,0,scaled,c7_large_toaster_L_H.png,large,c,1,1200,5,5,c7_large_toaster_L_H.png,163170,496942,48,Donna
376176,Gabor-Discrimination,v2,jsons/s8_odd.json,-0.001775166,1536,695,1536,864,2/6/24,17-10-45,2,6,c11,small,c11_large_spoon_L,c11_large_spoon_L,spoon,L,H,kitchen,0,misscaled,c11_large_spoon_L_H.png,large,c,1,1603,6,7,c11_large_spoon_L_H.png,163170,496942,48,Donna
376176,Gabor-Discrimination,v2,jsons/s8_odd.json,-1.033590562,1536,695,1536,864,2/6/24,17-10-45,2,7,c1,large,c1_large_notebook_L,c1_large_notebook_L,notebook,L,V,classroom,1,scaled,c1_large_notebook_L_V.png,large,m,1,828,7,4,c1_large_notebook_L_V.png,163170,496942,48,Donna
376176,Gabor-Discrimination,v2,jsons/s8_odd.json,1.3043034179375108,1536,695,1536,864,2/6/24,17-10-45,2,8,k5,small,k5_large_flashdrive_R,k5_large_flashdrive_R,flashdrive,R,H,classroom,0,misscaled,k5_large_flashdrive_R_H.png,large,c,1,2584,8,7,k5_large_flashdrive_R_H.png,163170,496942,48,Donna
376176,Gabor-Discrimination,v2,jsons/s8_odd.json,-0.518348551,1536,695,1536,864,2/6/24,17-10-45,2,9,k11,large,k11_large_kettle_L,k11_large_kettle_L,kettle,L,H,kitchen,1,scaled,k11_large_kettle_L_H.png,large,c,1,1215,9,4,k11_large_kettle_L_H.png,163170,496942,48,Donna
376176,Gabor-Discrimination,v2,jsons/s8_odd.json,-0.469087687,1536,695,1536,864,2/6/24,17-10-45,2,10,k3,small,k3_large_sponge_R,k3_large_sponge_R,sponge,R,V,kitchen,1,misscaled,k3_large_sponge_R_V.png,large,m,1,1252,10,7,k3_large_sponge_R_V.png,163170,496942,48,Donna
376176,Gabor-Discrimination,v2,jsons/s8_odd.json,-0.75000775,1536,695,1536,864,2/6/24,17-10-45,2,11,c5,small,c5_large_binderclip_R,c5_large_binderclip_R,binderclip,R,V,classroom,1,misscaled,c5_large_binderclip_R_V.png,large,m,1,1041,11,7,c5_large_binderclip_R_V.png,163170,496942,48,Donna
847947,Gabor-Discrimination,v2,jsons/s5_odd.json,1.6720678913070113,2560,1279,2560,1440,2/5/24,23-56-50,2,0,k5,large,k5_large_kettle_R,k5_large_kettle_R,kettle,R,V,kitchen,1,scaled,k5_large_kettle_R_V.png,large,m,1,2131,0,5,k5_large_kettle_R_V.png,122290,285624,38,Woman
847947,Gabor-Discrimination,v2,jsons/s5_odd.json,-0.447356594,2560,1279,2560,1440,2/5/24,23-56-50,2,1,k7,large,k7_large_notebook_R,k7_large_notebook_R,notebook,R,V,classroom,0,scaled,k7_large_notebook_R_V.png,large,m,1,1219,1,5,k7_large_notebook_R_V.png,122290,285624,38,Woman
847947,Gabor-Discrimination,v2,jsons/s5_odd.json,-1.123620327,2560,1279,2560,1440,2/5/24,23-56-50,2,2,k3,large,k3_large_laptop_L,k3_large_laptop_L,laptop,L,H,classroom,0,scaled,k3_large_laptop_L_H.png,large,c,1,928,2,4,k3_large_laptop_L_H.png,122290,285624,38,Woman
847947,Gabor-Discrimination,v2,jsons/s5_odd.json,0.3451036579000572,2560,1279,2560,1440,2/5/24,23-56-50,2,3,c5,small,c5_large_spoon_R,c5_large_spoon_R,spoon,R,V,kitchen,0,misscaled,c5_large_spoon_R_V.png,large,m,1,1560,3,6,c5_large_spoon_R_V.png,122290,285624,38,Woman
847947,Gabor-Discrimination,v2,jsons/s5_odd.json,-0.628623161,2560,1279,2560,1440,2/5/24,23-56-50,2,4,c1,large,c1_large_toaster_L,c1_large_toaster_L,toaster,L,H,kitchen,0,scaled,c1_large_toaster_L_H.png,large,c,1,1141,4,4,c1_large_toaster_L_H.png,122290,285624,38,Woman
847947,Gabor-Discrimination,v2,jsons/s5_odd.json,-0.598412067,2560,1279,2560,1440,2/5/24,23-56-50,2,5,c9,small,c9_large_sponge_R,c9_large_sponge_R,sponge,R,V,kitchen,0,misscaled,c9_large_sponge_R_V.png,large,m,1,1154,5,7,c9_large_sponge_R_V.png,122290,285624,38,Woman
847947,Gabor-Discrimination,v2,jsons/s5_odd.json,0.063908085,2560,1279,2560,1440,2/5/24,23-56-50,2,6,k9,large,k9_large_pot_L,k9_large_pot_L,pot,L,V,kitchen,1,scaled,k9_large_pot_L_V.png,large,m,1,1439,6,4,k9_large_pot_L_V.png,122290,285624,38,Woman
847947,Gabor-Discrimination,v2,jsons/s5_odd.json,-0.542637738,2560,1279,2560,1440,2/5/24,23-56-50,2,7,c3,large,c3_large_clipboard_L,c3_large_clipboard_L,clipboard,L,H,classroom,1,scaled,c3_large_clipboard_L_H.png,large,c,1,1178,7,5,c3_large_clipboard_L_H.png,122290,285624,38,Woman
847947,Gabor-Discrimination,v2,jsons/s5_odd.json,0.7308760970341279,2560,1279,2560,1440,2/5/24,23-56-50,2,8,c7,small,c7_large_eraser_R,c7_large_eraser_R,eraser,R,H,classroom,1,misscaled,c7_large_eraser_R_H.png,large,c,1,1726,8,6,c7_large_eraser_R_H.png,122290,285624,38,Woman
847947,Gabor-Discrimination,v2,jsons/s5_odd.json,-0.786650426,2560,1279,2560,1440,2/5/24,23-56-50,2,9,k1,small,k1_large_saltshaker_R,k1_large_saltshaker_R,saltshaker,R,V,kitchen,1,misscaled,k1_large_saltshaker_R_V.png,large,m,1,1073,9,7,k1_large_saltshaker_R_V.png,122290,285624,38,Woman
847947,Gabor-Discrimination,v2,jsons/s5_odd.json,1.990446350110431,2560,1279,2560,1440,2/5/24,23-56-50,2,10,k11,small,k11_large_binderclip_L,k11_large_binderclip_L,binderclip,L,H,classroom,0,misscaled,k11_large_binderclip_L_H.png,large,c,1,2268,10,7,k11_large_binderclip_L_H.png,122290,285624,38,Woman
847947,Gabor-Discrimination,v2,jsons/s5_odd.json,-0.675101768,2560,1279,2560,1440,2/5/24,23-56-50,2,11,c11,small,c11_large_flashdrive_L,c11_large_flashdrive_L,flashdrive,L,H,classroom,1,misscaled,c11_large_flashdrive_L_H.png,large,c,1,1121,11,7,c11_large_flashdrive_L_H.png,122290,285624,38,Woman
796808,Gabor-Discrimination,v2,jsons/s9_odd.json,1.0496998997142717,1440,729,1440,900,2/6/24,12/6/38,1,0,c11,large,c11_large_clipboard_R,c11_large_clipboard_R,clipboard,R,V,classroom,1,scaled,c11_large_clipboard_R_V.png,large,m,1,2610,0,4,c11_large_clipboard_R_V.png,193468,479986,40,Woman
796808,Gabor-Discrimination,v2,jsons/s9_odd.json,0.27972929207644626,1440,729,1440,900,2/6/24,12/6/38,1,1,k11,large,k11_large_laptop_L,k11_large_laptop_L,laptop,L,V,classroom,0,scaled,k11_large_laptop_L_V.png,large,m,1,1937,1,4,k11_large_laptop_L_V.png,193468,479986,40,Woman
796808,Gabor-Discrimination,v2,jsons/s9_odd.json,-0.532572538,1440,729,1440,900,2/6/24,12/6/38,1,2,c5,large,c5_large_pot_R,c5_large_pot_R,pot,R,H,kitchen,0,scaled,c5_large_pot_R_H.png,large,c,1,1227,2,5,c5_large_pot_R_H.png,193468,479986,40,Woman
796808,Gabor-Discrimination,v2,jsons/s9_odd.json,0.5119789701603669,1440,729,1440,900,2/6/24,12/6/38,1,3,k9,small,k9_large_saltshaker_R,k9_large_saltshaker_R,saltshaker,R,H,kitchen,1,misscaled,k9_large_saltshaker_R_H.png,large,c,1,2140,3,6,k9_large_saltshaker_R_H.png,193468,479986,40,Woman
796808,Gabor-Discrimination,v2,jsons/s9_odd.json,-0.679015684,1440,729,1440,900,2/6/24,12/6/38,1,4,k5,small,k5_large_sponge_R,k5_large_sponge_R,sponge,R,H,kitchen,1,misscaled,k5_large_sponge_R_H.png,large,c,1,1099,4,7,k5_large_sponge_R_H.png,193468,479986,40,Woman
796808,Gabor-Discrimination,v2,jsons/s9_odd.json,-0.459350964,1440,729,1440,900,2/6/24,12/6/38,1,5,c1,large,c1_large_kettle_R,c1_large_kettle_R,kettle,R,H,kitchen,0,scaled,c1_large_kettle_R_H.png,large,c,1,1291,5,5,c1_large_kettle_R_H.png,193468,479986,40,Woman
796808,Gabor-Discrimination,v2,jsons/s9_odd.json,-0.609226372,1440,729,1440,900,2/6/24,12/6/38,1,6,c9,large,c9_large_toaster_L,c9_large_toaster_L,toaster,L,V,kitchen,0,scaled,c9_large_toaster_L_V.png,large,m,1,1160,6,6,c9_large_toaster_L_V.png,193468,479986,40,Woman
796808,Gabor-Discrimination,v2,jsons/s9_odd.json,2.5965056374948663,1440,729,1440,900,2/6/24,12/6/38,1,7,c7,small,c7_large_binderclip_L,c7_large_binderclip_L,binderclip,L,V,classroom,1,misscaled,c7_large_binderclip_L_V.png,large,m,1,3962,7,7,c7_large_binderclip_L_V.png,193468,479986,40,Woman
796808,Gabor-Discrimination,v2,jsons/s9_odd.json,-0.435325136,1440,729,1440,900,2/6/24,12/6/38,1,8,k1,small,k1_large_spoon_L,k1_large_spoon_L,spoon,L,V,kitchen,1,misscaled,k1_large_spoon_L_V.png,large,m,1,1312,8,6,k1_large_spoon_L_V.png,193468,479986,40,Woman
796808,Gabor-Discrimination,v2,jsons/s9_odd.json,-0.819738396,1440,729,1440,900,2/6/24,12/6/38,1,9,k7,small,k7_large_flashdrive_L,k7_large_flashdrive_L,flashdrive,L,V,classroom,0,misscaled,k7_large_flashdrive_L_V.png,large,m,1,976,9,7,k7_large_flashdrive_L_V.png,193468,479986,40,Woman
796808,Gabor-Discrimination,v2,jsons/s9_odd.json,-0.783127609,1440,729,1440,900,2/6/24,12/6/38,1,10,k3,small,k3_large_eraser_R,k3_large_eraser_R,eraser,R,H,classroom,0,misscaled,k3_large_eraser_R_H.png,large,m,0,1008,10,7,k3_large_eraser_R_H.png,193468,479986,40,Woman
796808,Gabor-Discrimination,v2,jsons/s9_odd.json,-0.1195571,1440,729,1440,900,2/6/24,12/6/38,1,11,c3,large,c3_large_notebook_L,c3_large_notebook_L,notebook,L,H,classroom,1,scaled,c3_large_notebook_L_H.png,large,c,1,1588,11,5,c3_large_notebook_L_H.png,193468,479986,40,Woman
232153,Gabor-Discrimination,v2,jsons/s8_even.json,1.9173248716874531,2560,1305,2560,1440,2/6/24,13-7-20,2,0,k6,small,k6_large_saltshaker_L,k6_large_saltshaker_L,saltshaker,L,V,kitchen,1,misscaled,k6_large_saltshaker_L_V.png,large,m,1,3106,0,5,k6_large_saltshaker_L_V.png,123384,306658,29,Man
232153,Gabor-Discrimination,v2,jsons/s8_even.json,1.004335743,2560,1305,2560,1440,2/6/24,13-7-20,2,1,c6,large,c6_large_toaster_L,c6_large_toaster_L,toaster,L,H,kitchen,0,scaled,c6_large_toaster_L_H.png,large,c,1,2468,1,5,c6_large_toaster_L_H.png,123384,306658,29,Man
232153,Gabor-Discrimination,v2,jsons/s8_even.json,0.19294885199591355,2560,1305,2560,1440,2/6/24,13-7-20,2,2,k8,large,k8_large_laptop_R,k8_large_laptop_R,laptop,R,H,classroom,0,scaled,k8_large_laptop_R_H.png,large,c,1,1901,2,4,k8_large_laptop_R_H.png,123384,306658,29,Man
232153,Gabor-Discrimination,v2,jsons/s8_even.json,-0.888900335,2560,1305,2560,1440,2/6/24,13-7-20,2,3,k0,small,k0_large_eraser_R,k0_large_eraser_R,eraser,R,H,classroom,0,misscaled,k0_large_eraser_R_H.png,large,c,1,1145,3,6,k0_large_eraser_R_H.png,123384,306658,29,Man
232153,Gabor-Discrimination,v2,jsons/s8_even.json,-0.801608271,2560,1305,2560,1440,2/6/24,13-7-20,2,4,c0,large,c0_large_notebook_L,c0_large_notebook_L,notebook,L,V,classroom,1,scaled,c0_large_notebook_L_V.png,large,m,1,1206,4,4,c0_large_notebook_L_V.png,123384,306658,29,Man
232153,Gabor-Discrimination,v2,jsons/s8_even.json,1.3950035047269451,2560,1305,2560,1440,2/6/24,13-7-20,2,5,c8,large,c8_large_clipboard_R,c8_large_clipboard_R,clipboard,R,V,classroom,1,scaled,c8_large_clipboard_R_V.png,large,m,1,2741,5,4,c8_large_clipboard_R_V.png,123384,306658,29,Man
232153,Gabor-Discrimination,v2,jsons/s8_even.json,-0.984778504,2560,1305,2560,1440,2/6/24,13-7-20,2,6,k4,small,k4_large_flashdrive_L,k4_large_flashdrive_L,flashdrive,L,H,classroom,0,misscaled,k4_large_flashdrive_L_H.png,large,c,1,1078,6,7,k4_large_flashdrive_L_H.png,123384,306658,29,Man
232153,Gabor-Discrimination,v2,jsons/s8_even.json,0.39042925923029737,2560,1305,2560,1440,2/6/24,13-7-20,2,7,c2,large,c2_large_pot_R,c2_large_pot_R,pot,R,H,kitchen,0,scaled,c2_large_pot_R_H.png,large,c,1,2039,7,4,c2_large_pot_R_H.png,123384,306658,29,Man
232153,Gabor-Discrimination,v2,jsons/s8_even.json,-1.113570074,2560,1305,2560,1440,2/6/24,13-7-20,2,8,k10,large,k10_large_kettle_R,k10_large_kettle_R,kettle,R,H,kitchen,1,scaled,k10_large_kettle_R_H.png,large,c,1,988,8,4,k10_large_kettle_R_H.png,123384,306658,29,Man
232153,Gabor-Discrimination,v2,jsons/s8_even.json,-0.156219404,2560,1305,2560,1440,2/6/24,13-7-20,2,9,c4,small,c4_large_binderclip_R,c4_large_binderclip_R,binderclip,R,V,classroom,1,misscaled,c4_large_binderclip_R_V.png,large,m,1,1657,9,7,c4_large_binderclip_R_V.png,123384,306658,29,Man
232153,Gabor-Discrimination,v2,jsons/s8_even.json,-0.309338271,2560,1305,2560,1440,2/6/24,13-7-20,2,10,c10,small,c10_large_spoon_L,c10_large_spoon_L,spoon,L,V,kitchen,0,misscaled,c10_large_spoon_L_V.png,large,m,1,1550,10,7,c10_large_spoon_L_V.png,123384,306658,29,Man
232153,Gabor-Discrimination,v2,jsons/s8_even.json,-0.64562737,2560,1305,2560,1440,2/6/24,13-7-20,2,11,k2,small,k2_large_sponge_L,k2_large_sponge_L,sponge,L,V,kitchen,1,misscaled,k2_large_sponge_L_V.png,large,m,1,1315,11,7,k2_large_sponge_L_V.png,123384,306658,29,Man
992898,Gabor-Discrimination,v2,jsons/s11_even.json,1.5509704921294512,1349,599,1366,768,2/5/24,19-56-27,1,0,k8,small,k8_large_sponge_L,k8_large_sponge_L,sponge,L,V,kitchen,1,misscaled,k8_large_sponge_L_V.png,large,m,1,1390,0,6,k8_large_sponge_L_V.png,125239,306840,27,Man
992898,Gabor-Discrimination,v2,jsons/s11_even.json,0.29830084689216146,1349,599,1366,768,2/5/24,19-56-27,1,1,c8,large,c8_large_pot_L,c8_large_pot_L,pot,L,V,kitchen,0,scaled,c8_large_pot_L_V.png,large,m,1,1067,1,5,c8_large_pot_L_V.png,125239,306840,27,Man
992898,Gabor-Discrimination,v2,jsons/s11_even.json,-1.190941084,1349,599,1366,768,2/5/24,19-56-27,1,2,k2,large,k2_large_clipboard_R,k2_large_clipboard_R,clipboard,R,H,classroom,0,scaled,k2_large_clipboard_R_H.png,large,c,1,683,2,5,k2_large_clipboard_R_H.png,125239,306840,27,Man
992898,Gabor-Discrimination,v2,jsons/s11_even.json,-0.75270062,1349,599,1366,768,2/5/24,19-56-27,1,3,c4,large,c4_large_kettle_R,c4_large_kettle_R,kettle,R,H,kitchen,0,scaled,c4_large_kettle_R_H.png,large,c,1,796,3,4,c4_large_kettle_R_H.png,125239,306840,27,Man
992898,Gabor-Discrimination,v2,jsons/s11_even.json,-0.934977627,1349,599,1366,768,2/5/24,19-56-27,1,4,c0,small,c0_large_saltshaker_R,c0_large_saltshaker_R,saltshaker,R,H,kitchen,0,misscaled,c0_large_saltshaker_R_H.png,large,c,1,749,4,6,c0_large_saltshaker_R_H.png,125239,306840,27,Man
992898,Gabor-Discrimination,v2,jsons/s11_even.json,0.3758655308077831,1349,599,1366,768,2/5/24,19-56-27,1,5,k6,small,k6_large_eraser_R,k6_large_eraser_R,eraser,R,V,classroom,0,misscaled,k6_large_eraser_R_V.png,large,m,1,1087,5,4,k6_large_eraser_R_V.png,125239,306840,27,Man
992898,Gabor-Discrimination,v2,jsons/s11_even.json,2.074532108559897,1349,599,1366,768,2/5/24,19-56-27,1,6,c10,small,c10_large_binderclip_L,c10_large_binderclip_L,binderclip,L,V,classroom,1,misscaled,c10_large_binderclip_L_V.png,large,m,1,1525,6,7,c10_large_binderclip_L_V.png,125239,306840,27,Man
992898,Gabor-Discrimination,v2,jsons/s11_even.json,-0.675135936,1349,599,1366,768,2/5/24,19-56-27,1,7,k4,small,k4_large_spoon_L,k4_large_spoon_L,spoon,L,V,kitchen,1,misscaled,k4_large_spoon_L_V.png,large,m,1,816,7,7,k4_large_spoon_L_V.png,125239,306840,27,Man
992898,Gabor-Discrimination,v2,jsons/s11_even.json,-0.372633669,1349,599,1366,768,2/5/24,19-56-27,1,8,c6,large,c6_large_notebook_R,c6_large_notebook_R,notebook,R,H,classroom,1,scaled,c6_large_notebook_R_H.png,large,c,1,894,8,5,c6_large_notebook_R_H.png,125239,306840,27,Man
992898,Gabor-Discrimination,v2,jsons/s11_even.json,0.4728213857023102,1349,599,1366,768,2/5/24,19-56-27,1,9,k0,large,k0_large_toaster_R,k0_large_toaster_R,toaster,R,V,kitchen,1,scaled,k0_large_toaster_R_V.png,large,m,1,1112,9,4,k0_large_toaster_R_V.png,125239,306840,27,Man
992898,Gabor-Discrimination,v2,jsons/s11_even.json,-0.535519505,1349,599,1366,768,2/5/24,19-56-27,1,10,c2,large,c2_large_laptop_L,c2_large_laptop_L,laptop,L,H,classroom,1,scaled,c2_large_laptop_L_H.png,large,c,1,852,10,4,c2_large_laptop_L_H.png,125239,306840,27,Man
992898,Gabor-Discrimination,v2,jsons/s11_even.json,-0.310581922,1349,599,1366,768,2/5/24,19-56-27,1,11,k10,small,k10_large_flashdrive_L,k10_large_flashdrive_L,flashdrive,L,H,classroom,0,misscaled,k10_large_flashdrive_L_H.png,large,c,1,910,11,7,k10_large_flashdrive_L_H.png,125239,306840,27,Man
731908,Gabor-Discrimination,v2,jsons/s4_odd.json,1.1153389994886356,1920,919,1920,1080,2/5/24,23-52-1,1,0,k11,large,k11_large_toaster_L,k11_large_toaster_L,toaster,L,V,kitchen,1,scaled,k11_large_toaster_L_V.png,large,m,1,1918,0,4,k11_large_toaster_L_V.png,131191,358150,20,Man
731908,Gabor-Discrimination,v2,jsons/s4_odd.json,1.9326699362455335,1920,919,1920,1080,2/5/24,23-52-1,1,1,k1,large,k1_large_laptop_R,k1_large_laptop_R,laptop,R,H,classroom,0,scaled,k1_large_laptop_R_H.png,large,c,1,2291,1,4,k1_large_laptop_R_H.png,131191,358150,20,Man
731908,Gabor-Discrimination,v2,jsons/s4_odd.json,0.31992042028554185,1920,919,1920,1080,2/5/24,23-52-1,1,2,c11,small,c11_large_saltshaker_R,c11_large_saltshaker_R,saltshaker,R,V,kitchen,0,misscaled,c11_large_saltshaker_R_V.png,large,m,1,1555,2,4,c11_large_saltshaker_R_V.png,131191,358150,20,Man
731908,Gabor-Discrimination,v2,jsons/s4_odd.json,-0.922510253,1920,919,1920,1080,2/5/24,23-52-1,1,3,c1,large,c1_large_clipboard_R,c1_large_clipboard_R,clipboard,R,V,classroom,1,scaled,c1_large_clipboard_R_V.png,large,m,1,988,3,5,c1_large_clipboard_R_V.png,131191,358150,20,Man
731908,Gabor-Discrimination,v2,jsons/s4_odd.json,-0.186255039,1920,919,1920,1080,2/5/24,23-52-1,1,4,k3,large,k3_large_kettle_R,k3_large_kettle_R,kettle,R,H,kitchen,1,scaled,k3_large_kettle_R_H.png,large,c,1,1324,4,4,k3_large_kettle_R_H.png,131191,358150,20,Man
731908,Gabor-Discrimination,v2,jsons/s4_odd.json,-1.143825064,1920,919,1920,1080,2/5/24,23-52-1,1,5,c5,small,c5_large_eraser_L,c5_large_eraser_L,eraser,L,H,classroom,1,misscaled,c5_large_eraser_L_H.png,large,c,1,887,5,7,c5_large_eraser_L_H.png,131191,358150,20,Man
731908,Gabor-Discrimination,v2,jsons/s4_odd.json,-0.639840841,1920,919,1920,1080,2/5/24,23-52-1,1,6,k7,large,k7_large_pot_L,k7_large_pot_L,pot,L,H,kitchen,1,scaled,k7_large_pot_L_H.png,large,c,1,1117,6,4,k7_large_pot_L_H.png,131191,358150,20,Man
731908,Gabor-Discrimination,v2,jsons/s4_odd.json,-1.288446624,1920,919,1920,1080,2/5/24,23-52-1,1,7,c3,small,c3_large_spoon_R,c3_large_spoon_R,spoon,R,V,kitchen,0,misscaled,c3_large_spoon_R_V.png,large,m,1,821,7,7,c3_large_spoon_R_V.png,131191,358150,20,Man
731908,Gabor-Discrimination,v2,jsons/s4_odd.json,1.0737055201364076,1920,919,1920,1080,2/5/24,23-52-1,1,8,c7,small,c7_large_sponge_L,c7_large_sponge_L,sponge,L,H,kitchen,0,misscaled,c7_large_sponge_L_H.png,large,m,0,1899,8,7,c7_large_sponge_L_H.png,131191,358150,20,Man
731908,Gabor-Discrimination,v2,jsons/s4_odd.json,0.35059772086086777,1920,919,1920,1080,2/5/24,23-52-1,1,9,k9,small,k9_large_binderclip_L,k9_large_binderclip_L,binderclip,L,V,classroom,0,misscaled,k9_large_binderclip_L_V.png,large,m,1,1569,9,7,k9_large_binderclip_L_V.png,131191,358150,20,Man
731908,Gabor-Discrimination,v2,jsons/s4_odd.json,-0.615737247,1920,919,1920,1080,2/5/24,23-52-1,1,10,c9,small,c9_large_flashdrive_L,c9_large_flashdrive_L,flashdrive,L,V,classroom,1,misscaled,c9_large_flashdrive_L_V.png,large,m,1,1128,10,7,c9_large_flashdrive_L_V.png,131191,358150,20,Man
731908,Gabor-Discrimination,v2,jsons/s4_odd.json,0.004382472,1920,919,1920,1080,2/5/24,23-52-1,1,11,k5,large,k5_large_notebook_R,k5_large_notebook_R,notebook,R,H,classroom,0,scaled,k5_large_notebook_R_H.png,large,c,1,1411,11,7,k5_large_notebook_R_H.png,131191,358150,20,Man
274316,Gabor-Discrimination,v2,jsons/s2_odd.json,-1.211395488,2560,1279,2560,1440,2/5/24,21-31-4,1,0,k1,large,k1_large_notebook_L,k1_large_notebook_L,notebook,L,H,classroom,0,scaled,k1_large_notebook_L_H.png,large,c,1,850,0,5,k1_large_notebook_L_H.png,124281,227390,29,Man
274316,Gabor-Discrimination,v2,jsons/s2_odd.json,-0.512921636,2560,1279,2560,1440,2/5/24,21-31-4,1,1,c1,small,c1_large_eraser_R,c1_large_eraser_R,eraser,R,V,classroom,1,misscaled,c1_large_eraser_R_V.png,large,m,1,1212,1,7,c1_large_eraser_R_V.png,124281,227390,29,Man
274316,Gabor-Discrimination,v2,jsons/s2_odd.json,-0.927761078,2560,1279,2560,1440,2/5/24,21-31-4,1,2,c9,large,c9_large_laptop_R,c9_large_laptop_R,laptop,R,H,classroom,1,scaled,c9_large_laptop_R_H.png,large,m,0,997,2,4,c9_large_laptop_R_H.png,124281,227390,29,Man
274316,Gabor-Discrimination,v2,jsons/s2_odd.json,0.14696250009371556,2560,1279,2560,1440,2/5/24,21-31-4,1,3,k11,small,k11_large_spoon_L,k11_large_spoon_L,spoon,L,H,kitchen,1,misscaled,k11_large_spoon_L_H.png,large,c,1,1554,3,6,k11_large_spoon_L_H.png,124281,227390,29,Man
274316,Gabor-Discrimination,v2,jsons/s2_odd.json,0.10837278453300253,2560,1279,2560,1440,2/5/24,21-31-4,1,4,c3,small,c3_large_sponge_L,c3_large_sponge_L,sponge,L,V,kitchen,0,misscaled,c3_large_sponge_L_V.png,large,m,1,1534,4,6,c3_large_sponge_L_V.png,124281,227390,29,Man
274316,Gabor-Discrimination,v2,jsons/s2_odd.json,1.879640729,2560,1279,2560,1440,2/5/24,21-31-4,1,5,c11,large,c11_large_kettle_R,c11_large_kettle_R,kettle,R,V,kitchen,0,scaled,c11_large_kettle_R_V.png,large,m,1,2452,5,6,c11_large_kettle_R_V.png,124281,227390,29,Man
274316,Gabor-Discrimination,v2,jsons/s2_odd.json,1.823685641206696,2560,1279,2560,1440,2/5/24,21-31-4,1,6,c7,small,c7_large_saltshaker_R,c7_large_saltshaker_R,saltshaker,R,H,kitchen,0,misscaled,c7_large_saltshaker_R_H.png,large,c,1,2423,6,6,c7_large_saltshaker_R_H.png,124281,227390,29,Man
274316,Gabor-Discrimination,v2,jsons/s2_odd.json,0.3128982770047815,2560,1279,2560,1440,2/5/24,21-31-4,1,7,k3,large,k3_large_pot_R,k3_large_pot_R,pot,R,H,kitchen,1,scaled,k3_large_pot_R_H.png,large,c,1,1640,7,4,k3_large_pot_R_H.png,124281,227390,29,Man
274316,Gabor-Discrimination,v2,jsons/s2_odd.json,-0.383646089,2560,1279,2560,1440,2/5/24,21-31-4,1,8,c5,small,c5_large_flashdrive_L,c5_large_flashdrive_L,flashdrive,L,V,classroom,1,misscaled,c5_large_flashdrive_L_V.png,large,m,1,1279,8,7,c5_large_flashdrive_L_V.png,124281,227390,29,Man
274316,Gabor-Discrimination,v2,jsons/s2_odd.json,-0.727094557,2560,1279,2560,1440,2/5/24,21-31-4,1,9,k9,large,k9_large_clipboard_L,k9_large_clipboard_L,clipboard,L,V,classroom,0,scaled,k9_large_clipboard_L_V.png,large,m,1,1101,9,4,k9_large_clipboard_L_V.png,124281,227390,29,Man
274316,Gabor-Discrimination,v2,jsons/s2_odd.json,-0.80813296,2560,1279,2560,1440,2/5/24,21-31-4,1,10,k7,large,k7_large_toaster_L,k7_large_toaster_L,toaster,L,V,kitchen,1,scaled,k7_large_toaster_L_V.png,large,m,1,1059,10,5,k7_large_toaster_L_V.png,124281,227390,29,Man
274316,Gabor-Discrimination,v2,jsons/s2_odd.json,0.29939187655853194,2560,1279,2560,1440,2/5/24,21-31-4,1,11,k5,small,k5_large_binderclip_R,k5_large_binderclip_R,binderclip,R,H,classroom,0,misscaled,k5_large_binderclip_R_H.png,large,c,1,1633,11,7,k5_large_binderclip_R_H.png,124281,227390,29,Man
931030,Gabor-Discrimination,v2,jsons/s1_odd.json,-1.060707438,1536,695,1536,864,2/6/24,18-8-52,1,0,c11,large,c11_large_notebook_L,c11_large_notebook_L,notebook,L,V,classroom,1,scaled,c11_large_notebook_L_V.png,large,c,0,1575,0,4,c11_large_notebook_L_V.png,203499,329381,30,Woman
931030,Gabor-Discrimination,v2,jsons/s1_odd.json,1.4401075857209944,1536,695,1536,864,2/6/24,18-8-52,1,1,k5,large,k5_large_toaster_R,k5_large_toaster_R,toaster,R,H,kitchen,1,scaled,k5_large_toaster_R_H.png,large,m,0,3358,1,4,k5_large_toaster_R_H.png,203499,329381,30,Woman
931030,Gabor-Discrimination,v2,jsons/s1_odd.json,0.3881663251505091,1536,695,1536,864,2/6/24,18-8-52,1,2,c5,small,c5_large_saltshaker_L,c5_large_saltshaker_L,saltshaker,L,H,kitchen,0,misscaled,c5_large_saltshaker_L_H.png,large,c,1,2608,2,4,c5_large_saltshaker_L_H.png,203499,329381,30,Woman
931030,Gabor-Discrimination,v2,jsons/s1_odd.json,1.3854066401713292,1536,695,1536,864,2/6/24,18-8-52,1,3,c1,small,c1_large_sponge_R,c1_large_sponge_R,sponge,R,V,kitchen,0,misscaled,c1_large_sponge_R_V.png,large,m,1,3319,3,4,c1_large_sponge_R_V.png,203499,329381,30,Woman
931030,Gabor-Discrimination,v2,jsons/s1_odd.json,0.23949196032321385,1536,695,1536,864,2/6/24,18-8-52,1,4,c9,large,c9_large_kettle_R,c9_large_kettle_R,kettle,R,H,kitchen,0,scaled,c9_large_kettle_R_H.png,large,c,1,2502,4,4,c9_large_kettle_R_H.png,203499,329381,30,Woman
931030,Gabor-Discrimination,v2,jsons/s1_odd.json,-1.172914506,1536,695,1536,864,2/6/24,18-8-52,1,5,k3,small,k3_large_binderclip_L,k3_large_binderclip_L,binderclip,L,H,classroom,0,misscaled,k3_large_binderclip_L_H.png,large,c,1,1495,5,7,k3_large_binderclip_L_H.png,203499,329381,30,Woman
931030,Gabor-Discrimination,v2,jsons/s1_odd.json,-0.120973245,1536,695,1536,864,2/6/24,18-8-52,1,6,k11,small,k11_large_eraser_R,k11_large_eraser_R,eraser,R,H,classroom,0,misscaled,k11_large_eraser_R_H.png,large,c,1,2245,6,7,k11_large_eraser_R_H.png,203499,329381,30,Woman
931030,Gabor-Discrimination,v2,jsons/s1_odd.json,0.8341894196323948,1536,695,1536,864,2/6/24,18-8-52,1,7,k7,large,k7_large_clipboard_L,k7_large_clipboard_L,clipboard,L,H,classroom,0,scaled,k7_large_clipboard_L_H.png,large,m,0,2926,7,4,k7_large_clipboard_L_H.png,203499,329381,30,Woman
931030,Gabor-Discrimination,v2,jsons/s1_odd.json,-0.052246416,1536,695,1536,864,2/6/24,18-8-52,1,8,k1,large,k1_large_pot_L,k1_large_pot_L,pot,L,V,kitchen,1,scaled,k1_large_pot_L_V.png,large,m,1,2294,8,4,k1_large_pot_L_V.png,203499,329381,30,Woman
931030,Gabor-Discrimination,v2,jsons/s1_odd.json,0.5985545772646061,1536,695,1536,864,2/6/24,18-8-52,1,9,k9,small,k9_large_spoon_R,k9_large_spoon_R,spoon,R,V,kitchen,1,misscaled,k9_large_spoon_R_V.png,large,m,1,2758,9,7,k9_large_spoon_R_V.png,203499,329381,30,Woman
931030,Gabor-Discrimination,v2,jsons/s1_odd.json,-1.516548651,1536,695,1536,864,2/6/24,18-8-52,1,10,c7,large,c7_large_laptop_R,c7_large_laptop_R,laptop,R,V,classroom,1,scaled,c7_large_laptop_R_V.png,large,m,1,1250,10,4,c7_large_laptop_R_V.png,203499,329381,30,Woman
931030,Gabor-Discrimination,v2,jsons/s1_odd.json,-0.962526253,1536,695,1536,864,2/6/24,18-8-52,1,11,c3,small,c3_large_flashdrive_L,c3_large_flashdrive_L,flashdrive,L,V,classroom,1,misscaled,c3_large_flashdrive_L_V.png,large,m,1,1645,11,7,c3_large_flashdrive_L_V.png,203499,329381,30,Woman
934908,Gabor-Discrimination,v2,jsons/s2_even.json,0.1606297310980927,1349,599,1366,768,2/6/24,14-4-19,2,1,c0,small,c0_large_eraser_R,c0_large_eraser_R,eraser,R,H,classroom,1,misscaled,c0_large_eraser_R_H.png,large,c,1,1480,1,4,c0_large_eraser_R_H.png,164745,401015,21,Woman
934908,Gabor-Discrimination,v2,jsons/s2_even.json,1.6708930591136453,1349,599,1366,768,2/6/24,14-4-19,2,2,k8,large,k8_large_clipboard_R,k8_large_clipboard_R,clipboard,R,H,classroom,0,scaled,k8_large_clipboard_R_H.png,large,c,1,2039,2,5,k8_large_clipboard_R_H.png,164745,401015,21,Woman
934908,Gabor-Discrimination,v2,jsons/s2_even.json,-0.263540828,1349,599,1366,768,2/6/24,14-4-19,2,3,c2,small,c2_large_sponge_L,c2_large_sponge_L,sponge,L,V,kitchen,0,misscaled,c2_large_sponge_L_V.png,large,m,1,1323,3,7,c2_large_sponge_L_V.png,164745,401015,21,Woman
934908,Gabor-Discrimination,v2,jsons/s2_even.json,-1.319914641,1349,599,1366,768,2/6/24,14-4-19,2,4,k6,large,k6_large_toaster_L,k6_large_toaster_L,toaster,L,V,kitchen,1,scaled,k6_large_toaster_L_V.png,large,m,1,932,4,6,k6_large_toaster_L_V.png,164745,401015,21,Woman
934908,Gabor-Discrimination,v2,jsons/s2_even.json,-1.411773233,1349,599,1366,768,2/6/24,14-4-19,2,5,k2,large,k2_large_pot_L,k2_large_pot_L,pot,L,H,kitchen,1,scaled,k2_large_pot_L_H.png,large,m,0,898,5,5,k2_large_pot_L_H.png,164745,401015,21,Woman
934908,Gabor-Discrimination,v2,jsons/s2_even.json,-0.301364954,1349,599,1366,768,2/6/24,14-4-19,2,6,k0,large,k0_large_notebook_R,k0_large_notebook_R,notebook,R,V,classroom,0,scaled,k0_large_notebook_R_V.png,large,m,1,1309,6,4,k0_large_notebook_R_V.png,164745,401015,21,Woman
934908,Gabor-Discrimination,v2,jsons/s2_even.json,1.5520172336526714,1349,599,1366,768,2/6/24,14-4-19,2,7,c4,small,c4_large_flashdrive_R,c4_large_flashdrive_R,flashdrive,R,H,classroom,1,misscaled,c4_large_flashdrive_R_H.png,large,c,1,1995,7,7,c4_large_flashdrive_R_H.png,164745,401015,21,Woman
934908,Gabor-Discrimination,v2,jsons/s2_even.json,0.028245289107462875,1349,599,1366,768,2/6/24,14-4-19,2,8,c6,small,c6_large_saltshaker_L,c6_large_saltshaker_L,saltshaker,L,V,kitchen,0,misscaled,c6_large_saltshaker_L_V.png,large,m,1,1431,8,7,c6_large_saltshaker_L_V.png,164745,401015,21,Woman
934908,Gabor-Discrimination,v2,jsons/s2_even.json,-0.123051216,1349,599,1366,768,2/6/24,14-4-19,2,9,c10,large,c10_large_kettle_R,c10_large_kettle_R,kettle,R,V,kitchen,0,scaled,c10_large_kettle_R_V.png,large,m,1,1375,9,5,c10_large_kettle_R_V.png,164745,401015,21,Woman
934908,Gabor-Discrimination,v2,jsons/s2_even.json,-0.652588984,1349,599,1366,768,2/6/24,14-4-19,2,10,k4,small,k4_large_binderclip_L,k4_large_binderclip_L,binderclip,L,H,classroom,0,misscaled,k4_large_binderclip_L_H.png,large,c,1,1179,10,7,k4_large_binderclip_L_H.png,164745,401015,21,Woman
934908,Gabor-Discrimination,v2,jsons/s2_even.json,0.6604485426953686,1349,599,1366,768,2/6/24,14-4-19,2,11,c8,large,c8_large_laptop_R,c8_large_laptop_R,laptop,R,H,classroom,1,scaled,c8_large_laptop_R_H.png,large,c,1,1665,11,5,c8_large_laptop_R_H.png,164745,401015,21,Woman
288777,Gabor-Discrimination,v2,jsons/s2_even.json,0.7485804149941907,1440,900,1440,900,2/5/24,21-33-19,1,0,k10,small,k10_large_spoon_L,k10_large_spoon_L,spoon,L,V,kitchen,1,misscaled,k10_large_spoon_L_V.png,large,m,1,1784,0,5,k10_large_spoon_L_V.png,124767,221140,25,Woman
288777,Gabor-Discrimination,v2,jsons/s2_even.json,-0.149716083,1440,900,1440,900,2/5/24,21-33-19,1,1,c0,small,c0_large_eraser_R,c0_large_eraser_R,eraser,R,H,classroom,1,misscaled,c0_large_eraser_R_H.png,large,c,1,1306,1,7,c0_large_eraser_R_H.png,124767,221140,25,Woman
288777,Gabor-Discrimination,v2,jsons/s2_even.json,-0.86948085,1440,900,1440,900,2/5/24,21-33-19,1,2,k8,large,k8_large_clipboard_L,k8_large_clipboard_L,clipboard,L,V,classroom,0,scaled,k8_large_clipboard_L_V.png,large,m,1,923,2,4,k8_large_clipboard_L_V.png,124767,221140,25,Woman
288777,Gabor-Discrimination,v2,jsons/s2_even.json,-1.132580243,1440,900,1440,900,2/5/24,21-33-19,1,3,c2,small,c2_large_sponge_R,c2_large_sponge_R,sponge,R,H,kitchen,0,misscaled,c2_large_sponge_R_H.png,large,m,0,783,3,7,c2_large_sponge_R_H.png,124767,221140,25,Woman
288777,Gabor-Discrimination,v2,jsons/s2_even.json,0.617030719,1440,900,1440,900,2/5/24,21-33-19,1,4,k6,large,k6_large_toaster_L,k6_large_toaster_L,toaster,L,V,kitchen,1,scaled,k6_large_toaster_L_V.png,large,c,0,1714,4,5,k6_large_toaster_L_V.png,124767,221140,25,Woman
288777,Gabor-Discrimination,v2,jsons/s2_even.json,0.1885545647809634,1440,900,1440,900,2/5/24,21-33-19,1,5,k2,large,k2_large_pot_R,k2_large_pot_R,pot,R,V,kitchen,1,scaled,k2_large_pot_R_V.png,large,m,1,1486,5,4,k2_large_pot_R_V.png,124767,221140,25,Woman
288777,Gabor-Discrimination,v2,jsons/s2_even.json,-0.279386498,1440,900,1440,900,2/5/24,21-33-19,1,6,k0,large,k0_large_notebook_L,k0_large_notebook_L,notebook,L,H,classroom,0,scaled,k0_large_notebook_L_H.png,large,c,1,1237,6,5,k0_large_notebook_L_H.png,124767,221140,25,Woman
288777,Gabor-Discrimination,v2,jsons/s2_even.json,-0.394022662,1440,900,1440,900,2/5/24,21-33-19,1,7,c4,small,c4_large_flashdrive_L,c4_large_flashdrive_L,flashdrive,L,V,classroom,1,misscaled,c4_large_flashdrive_L_V.png,large,m,1,1176,7,7,c4_large_flashdrive_L_V.png,124767,221140,25,Woman
288777,Gabor-Discrimination,v2,jsons/s2_even.json,-0.298179312,1440,900,1440,900,2/5/24,21-33-19,1,8,c6,small,c6_large_saltshaker_R,c6_large_saltshaker_R,saltshaker,R,H,kitchen,0,misscaled,c6_large_saltshaker_R_H.png,large,c,1,1227,8,7,c6_large_saltshaker_R_H.png,124767,221140,25,Woman
288777,Gabor-Discrimination,v2,jsons/s2_even.json,0.30694929150389405,1440,900,1440,900,2/5/24,21-33-19,1,9,c10,large,c10_large_kettle_R,c10_large_kettle_R,kettle,R,H,kitchen,0,scaled,c10_large_kettle_R_H.png,large,c,1,1549,9,5,c10_large_kettle_R_H.png,124767,221140,25,Woman
288777,Gabor-Discrimination,v2,jsons/s2_even.json,2.468122874541516,1440,900,1440,900,2/5/24,21-33-19,1,10,k4,small,k4_large_binderclip_R,k4_large_binderclip_R,binderclip,R,V,classroom,0,misscaled,k4_large_binderclip_R_V.png,large,m,1,2699,10,7,k4_large_binderclip_R_V.png,124767,221140,25,Woman
288777,Gabor-Discrimination,v2,jsons/s2_even.json,-1.205872217,1440,900,1440,900,2/5/24,21-33-19,1,11,c8,large,c8_large_laptop_L,c8_large_laptop_L,laptop,L,H,classroom,1,scaled,c8_large_laptop_L_H.png,large,c,1,744,11,5,c8_large_laptop_L_H.png,124767,221140,25,Woman
447827,Gabor-Discrimination,v2,jsons/s0_odd.json,1.4503668333748907,1440,900,1440,900,2/5/24,20-28-56,1,0,c11,large,c11_large_pot_R,c11_large_pot_R,pot,R,H,kitchen,0,scaled,c11_large_pot_R_H.png,large,c,1,1625,0,4,c11_large_pot_R_H.png,128083,244668,28,Man
447827,Gabor-Discrimination,v2,jsons/s0_odd.json,1.712251252191172,1440,900,1440,900,2/5/24,20-28-56,1,1,k3,large,k3_large_toaster_R,k3_large_toaster_R,toaster,R,H,kitchen,1,scaled,k3_large_toaster_R_H.png,large,c,1,1697,1,6,k3_large_toaster_R_H.png,128083,244668,28,Man
447827,Gabor-Discrimination,v2,jsons/s0_odd.json,0.26097509791761353,1440,900,1440,900,2/5/24,20-28-56,1,2,k11,small,k11_large_sponge_R,k11_large_sponge_R,sponge,R,V,kitchen,1,misscaled,k11_large_sponge_R_V.png,large,m,1,1298,2,4,k11_large_sponge_R_V.png,128083,244668,28,Man
447827,Gabor-Discrimination,v2,jsons/s0_odd.json,-0.58651198,1440,900,1440,900,2/5/24,20-28-56,1,3,k9,small,k9_large_eraser_R,k9_large_eraser_R,eraser,R,H,classroom,0,misscaled,k9_large_eraser_R_H.png,large,c,1,1065,3,7,k9_large_eraser_R_H.png,128083,244668,28,Man
447827,Gabor-Discrimination,v2,jsons/s0_odd.json,-0.775650727,1440,900,1440,900,2/5/24,20-28-56,1,4,k7,small,k7_large_spoon_R,k7_large_spoon_R,spoon,R,H,kitchen,1,misscaled,k7_large_spoon_R_H.png,large,c,1,1013,4,7,k7_large_spoon_R_H.png,128083,244668,28,Man
447827,Gabor-Discrimination,v2,jsons/s0_odd.json,0.2791615158909664,1440,900,1440,900,2/5/24,20-28-56,1,5,c7,large,c7_large_kettle_L,c7_large_kettle_L,kettle,L,V,kitchen,0,scaled,c7_large_kettle_L_V.png,large,m,1,1303,5,5,c7_large_kettle_L_V.png,128083,244668,28,Man
447827,Gabor-Discrimination,v2,jsons/s0_odd.json,-1.026623295,1440,900,1440,900,2/5/24,20-28-56,1,6,c9,large,c9_large_notebook_L,c9_large_notebook_L,notebook,L,H,classroom,1,scaled,c9_large_notebook_L_H.png,large,c,1,944,6,5,c9_large_notebook_L_H.png,128083,244668,28,Man
447827,Gabor-Discrimination,v2,jsons/s0_odd.json,1.2175806833159741,1440,900,1440,900,2/5/24,20-28-56,1,7,c3,small,c3_large_saltshaker_L,c3_large_saltshaker_L,saltshaker,L,H,kitchen,0,misscaled,c3_large_saltshaker_L_H.png,large,c,1,1561,7,5,c3_large_saltshaker_L_H.png,128083,244668,28,Man
447827,Gabor-Discrimination,v2,jsons/s0_odd.json,-1.084819832,1440,900,1440,900,2/5/24,20-28-56,1,8,c5,large,c5_large_laptop_L,c5_large_laptop_L,laptop,L,V,classroom,1,scaled,c5_large_laptop_L_V.png,large,m,1,928,8,4,c5_large_laptop_L_V.png,128083,244668,28,Man
447827,Gabor-Discrimination,v2,jsons/s0_odd.json,-0.066380426,1440,900,1440,900,2/5/24,20-28-56,1,9,k1,small,k1_large_binderclip_R,k1_large_binderclip_R,binderclip,R,V,classroom,0,misscaled,k1_large_binderclip_R_V.png,large,m,1,1208,9,7,k1_large_binderclip_R_V.png,128083,244668,28,Man
447827,Gabor-Discrimination,v2,jsons/s0_odd.json,-0.371912248,1440,900,1440,900,2/5/24,20-28-56,1,10,c1,small,c1_large_flashdrive_L,c1_large_flashdrive_L,flashdrive,L,V,classroom,1,misscaled,c1_large_flashdrive_L_V.png,large,m,1,1124,10,7,c1_large_flashdrive_L_V.png,128083,244668,28,Man
447827,Gabor-Discrimination,v2,jsons/s0_odd.json,-1.008436877,1440,900,1440,900,2/5/24,20-28-56,1,11,k5,large,k5_large_clipboard_L,k5_large_clipboard_L,clipboard,L,V,classroom,0,scaled,k5_large_clipboard_L_V.png,large,m,1,949,11,5,k5_large_clipboard_L_V.png,128083,244668,28,Man
110636,Gabor-Discrimination,v2,jsons/s3_odd.json,1.9411166712207568,1536,730,1536,864,2/5/24,22-48-43,1,0,k3,large,k3_large_notebook_R,k3_large_notebook_R,notebook,R,H,classroom,0,scaled,k3_large_notebook_R_H.png,large,c,1,2344,0,5,k3_large_notebook_R_H.png,144117,272468,26,Man
110636,Gabor-Discrimination,v2,jsons/s3_odd.json,-0.782150481,1536,730,1536,864,2/5/24,22-48-43,1,1,c11,large,c11_large_laptop_R,c11_large_laptop_R,laptop,R,V,classroom,1,scaled,c11_large_laptop_R_V.png,large,m,1,848,1,4,c11_large_laptop_R_V.png,144117,272468,26,Man
110636,Gabor-Discrimination,v2,jsons/s3_odd.json,0.5503572431376136,1536,730,1536,864,2/5/24,22-48-43,1,2,k9,large,k9_large_toaster_L,k9_large_toaster_L,toaster,L,H,kitchen,1,scaled,k9_large_toaster_L_H.png,large,m,0,1580,2,4,k9_large_toaster_L_H.png,144117,272468,26,Man
110636,Gabor-Discrimination,v2,jsons/s3_odd.json,1.8227928978890755,1536,730,1536,864,2/5/24,22-48-43,1,3,k7,small,k7_large_binderclip_R,k7_large_binderclip_R,binderclip,R,H,classroom,0,misscaled,k7_large_binderclip_R_H.png,large,c,1,2279,3,7,k7_large_binderclip_R_H.png,144117,272468,26,Man
110636,Gabor-Discrimination,v2,jsons/s3_odd.json,-0.050363452,1536,730,1536,864,2/5/24,22-48-43,1,4,c3,small,c3_large_eraser_R,c3_large_eraser_R,eraser,R,V,classroom,1,misscaled,c3_large_eraser_R_V.png,large,m,1,1250,4,7,c3_large_eraser_R_V.png,144117,272468,26,Man
110636,Gabor-Discrimination,v2,jsons/s3_odd.json,-0.567347323,1536,730,1536,864,2/5/24,22-48-43,1,5,c9,small,c9_large_saltshaker_L,c9_large_saltshaker_L,saltshaker,L,V,kitchen,0,misscaled,c9_large_saltshaker_L_V.png,large,m,1,966,5,4,c9_large_saltshaker_L_V.png,144117,272468,26,Man
110636,Gabor-Discrimination,v2,jsons/s3_odd.json,0.009708617,1536,730,1536,864,2/5/24,22-48-43,1,6,c7,small,c7_large_flashdrive_L,c7_large_flashdrive_L,flashdrive,L,H,classroom,1,misscaled,c7_large_flashdrive_L_H.png,large,c,1,1283,6,7,c7_large_flashdrive_L_H.png,144117,272468,26,Man
110636,Gabor-Discrimination,v2,jsons/s3_odd.json,0.031553006,1536,730,1536,864,2/5/24,22-48-43,1,7,c1,small,c1_large_spoon_R,c1_large_spoon_R,spoon,R,H,kitchen,0,misscaled,c1_large_spoon_R_H.png,large,c,1,1295,7,6,c1_large_spoon_R_H.png,144117,272468,26,Man
110636,Gabor-Discrimination,v2,jsons/s3_odd.json,-0.91503718,1536,730,1536,864,2/5/24,22-48-43,1,8,k5,large,k5_large_pot_L,k5_large_pot_L,pot,L,V,kitchen,1,scaled,k5_large_pot_L_V.png,large,m,1,775,8,4,k5_large_pot_L_V.png,144117,272468,26,Man
110636,Gabor-Discrimination,v2,jsons/s3_odd.json,-0.873168768,1536,730,1536,864,2/5/24,22-48-43,1,9,k1,large,k1_large_kettle_L,k1_large_kettle_L,kettle,L,V,kitchen,1,scaled,k1_large_kettle_L_V.png,large,m,1,798,9,5,k1_large_kettle_L_V.png,144117,272468,26,Man
110636,Gabor-Discrimination,v2,jsons/s3_odd.json,-0.143202105,1536,730,1536,864,2/5/24,22-48-43,1,10,k11,large,k11_large_clipboard_R,k11_large_clipboard_R,clipboard,R,V,classroom,0,scaled,k11_large_clipboard_R_V.png,large,m,1,1199,10,6,k11_large_clipboard_R_V.png,144117,272468,26,Man
110636,Gabor-Discrimination,v2,jsons/s3_odd.json,-1.024259125,1536,730,1536,864,2/5/24,22-48-43,1,11,c5,small,c5_large_sponge_L,c5_large_sponge_L,sponge,L,H,kitchen,0,misscaled,c5_large_sponge_L_H.png,large,c,1,715,11,7,c5_large_sponge_L_H.png,144117,272468,26,Man
824465,Gabor-Discrimination,v2,jsons/s9_even.json,-0.511083228,1920,929,1920,1080,2/6/24,8-51-43,1,1,k10,large,k10_large_laptop_R,k10_large_laptop_R,laptop,R,H,classroom,0,scaled,k10_large_laptop_R_H.png,large,c,1,1082,1,4,k10_large_laptop_R_H.png,210858,387181,50,Man
824465,Gabor-Discrimination,v2,jsons/s9_even.json,-0.103515362,1920,929,1920,1080,2/6/24,8-51-43,1,2,c8,large,c8_large_toaster_R,c8_large_toaster_R,toaster,R,H,kitchen,0,scaled,c8_large_toaster_R_H.png,large,c,1,1179,2,6,c8_large_toaster_R_H.png,210858,387181,50,Man
824465,Gabor-Discrimination,v2,jsons/s9_even.json,1.5141509086788631,1920,929,1920,1080,2/6/24,8-51-43,1,3,c10,large,c10_large_clipboard_L,c10_large_clipboard_L,clipboard,L,V,classroom,1,scaled,c10_large_clipboard_L_V.png,large,m,1,1564,3,4,c10_large_clipboard_L_V.png,210858,387181,50,Man
824465,Gabor-Discrimination,v2,jsons/s9_even.json,2.140208764209805,1920,929,1920,1080,2/6/24,8-51-43,1,4,c6,small,c6_large_binderclip_L,c6_large_binderclip_L,binderclip,L,H,classroom,1,misscaled,c6_large_binderclip_L_H.png,large,c,1,1713,4,7,c6_large_binderclip_L_H.png,210858,387181,50,Man
824465,Gabor-Discrimination,v2,jsons/s9_even.json,-0.477469383,1920,929,1920,1080,2/6/24,8-51-43,1,5,c4,large,c4_large_pot_L,c4_large_pot_L,pot,L,V,kitchen,0,scaled,c4_large_pot_L_V.png,large,m,1,1090,5,5,c4_large_pot_L_V.png,210858,387181,50,Man
824465,Gabor-Discrimination,v2,jsons/s9_even.json,-0.30940016,1920,929,1920,1080,2/6/24,8-51-43,1,6,k8,small,k8_large_saltshaker_R,k8_large_saltshaker_R,saltshaker,R,V,kitchen,1,misscaled,k8_large_saltshaker_R_V.png,large,m,1,1130,6,6,k8_large_saltshaker_R_V.png,210858,387181,50,Man
824465,Gabor-Discrimination,v2,jsons/s9_even.json,-0.977475322,1920,929,1920,1080,2/6/24,8-51-43,1,7,k4,small,k4_large_sponge_R,k4_large_sponge_R,sponge,R,V,kitchen,1,misscaled,k4_large_sponge_R_V.png,large,m,1,971,7,6,k4_large_sponge_R_V.png,210858,387181,50,Man
824465,Gabor-Discrimination,v2,jsons/s9_even.json,-0.124524015,1920,929,1920,1080,2/6/24,8-51-43,1,8,k0,small,k0_large_spoon_L,k0_large_spoon_L,spoon,L,H,kitchen,1,misscaled,k0_large_spoon_L_H.png,large,c,1,1174,8,5,k0_large_spoon_L_H.png,210858,387181,50,Man
824465,Gabor-Discrimination,v2,jsons/s9_even.json,0.3628767313937736,1920,929,1920,1080,2/6/24,8-51-43,1,9,c2,large,c2_large_notebook_R,c2_large_notebook_R,notebook,R,V,classroom,1,scaled,c2_large_notebook_R_V.png,large,m,1,1290,9,5,c2_large_notebook_R_V.png,210858,387181,50,Man
824465,Gabor-Discrimination,v2,jsons/s9_even.json,-0.38082958,1920,929,1920,1080,2/6/24,8-51-43,1,10,k6,small,k6_large_flashdrive_L,k6_large_flashdrive_L,flashdrive,L,V,classroom,0,misscaled,k6_large_flashdrive_L_V.png,large,m,1,1113,10,7,k6_large_flashdrive_L_V.png,210858,387181,50,Man
824465,Gabor-Discrimination,v2,jsons/s9_even.json,-1.132939353,1920,929,1920,1080,2/6/24,8-51-43,1,11,c0,large,c0_large_kettle_L,c0_large_kettle_L,kettle,L,H,kitchen,0,scaled,c0_large_kettle_L_H.png,large,c,1,934,11,5,c0_large_kettle_L_H.png,210858,387181,50,Man
166575,Gabor-Discrimination,v2,jsons/s4_even.json,1.1020828492572516,1920,919,1920,1080,2/6/24,18-10-2,1,0,k0,large,k0_large_laptop_R,k0_large_laptop_R,laptop,R,H,classroom,0,scaled,k0_large_laptop_R_H.png,large,c,1,1755,0,4,k0_large_laptop_R_H.png,124160,249143,32,Woman
166575,Gabor-Discrimination,v2,jsons/s4_even.json,-0.818336044,1920,919,1920,1080,2/6/24,18-10-2,1,1,k4,large,k4_large_notebook_L,k4_large_notebook_L,notebook,L,H,classroom,0,scaled,k4_large_notebook_L_H.png,large,c,1,1006,1,7,k4_large_notebook_L_H.png,124160,249143,32,Woman
166575,Gabor-Discrimination,v2,jsons/s4_even.json,-1.077297737,1920,919,1920,1080,2/6/24,18-10-2,1,2,c0,large,c0_large_clipboard_L,c0_large_clipboard_L,clipboard,L,H,classroom,1,scaled,c0_large_clipboard_L_H.png,large,c,1,905,2,5,c0_large_clipboard_L_H.png,124160,249143,32,Woman
166575,Gabor-Discrimination,v2,jsons/s4_even.json,-0.197853571,1920,919,1920,1080,2/6/24,18-10-2,1,3,k8,small,k8_large_binderclip_L,k8_large_binderclip_L,binderclip,L,V,classroom,0,misscaled,k8_large_binderclip_L_V.png,large,m,1,1248,3,7,k8_large_binderclip_L_V.png,124160,249143,32,Woman
166575,Gabor-Discrimination,v2,jsons/s4_even.json,0.5456998055453703,1920,919,1920,1080,2/6/24,18-10-2,1,4,c8,small,c8_large_flashdrive_L,c8_large_flashdrive_L,flashdrive,L,H,classroom,1,misscaled,c8_large_flashdrive_L_H.png,large,c,1,1538,4,7,c8_large_flashdrive_L_H.png,124160,249143,32,Woman
166575,Gabor-Discrimination,v2,jsons/s4_even.json,-0.372204018,1920,919,1920,1080,2/6/24,18-10-2,1,5,c10,small,c10_large_saltshaker_R,c10_large_saltshaker_R,saltshaker,R,V,kitchen,0,misscaled,c10_large_saltshaker_R_V.png,large,m,1,1180,5,7,c10_large_saltshaker_R_V.png,124160,249143,32,Woman
166575,Gabor-Discrimination,v2,jsons/s4_even.json,1.855892134286252,1920,919,1920,1080,2/6/24,18-10-2,1,6,c6,small,c6_large_sponge_L,c6_large_sponge_L,sponge,L,V,kitchen,0,misscaled,c6_large_sponge_L_V.png,large,m,1,2049,6,7,c6_large_sponge_L_V.png,124160,249143,32,Woman
166575,Gabor-Discrimination,v2,jsons/s4_even.json,-0.079910621,1920,919,1920,1080,2/6/24,18-10-2,1,7,k10,large,k10_large_toaster_R,k10_large_toaster_R,toaster,R,V,kitchen,1,scaled,k10_large_toaster_R_V.png,large,m,1,1294,7,4,k10_large_toaster_R_V.png,124160,249143,32,Woman
166575,Gabor-Discrimination,v2,jsons/s4_even.json,1.4020681769728742,1920,919,1920,1080,2/6/24,18-10-2,1,8,c2,small,c2_large_spoon_R,c2_large_spoon_R,spoon,R,H,kitchen,0,misscaled,c2_large_spoon_R_H.png,large,c,1,1872,8,7,c2_large_spoon_R_H.png,124160,249143,32,Woman
166575,Gabor-Discrimination,v2,jsons/s4_even.json,-0.446559355,1920,919,1920,1080,2/6/24,18-10-2,1,9,c4,small,c4_large_eraser_L,c4_large_eraser_L,eraser,L,V,classroom,1,misscaled,c4_large_eraser_L_V.png,large,m,1,1151,9,7,c4_large_eraser_L_V.png,124160,249143,32,Woman
166575,Gabor-Discrimination,v2,jsons/s4_even.json,-0.828591952,1920,919,1920,1080,2/6/24,18-10-2,1,10,k6,large,k6_large_pot_R,k6_large_pot_R,pot,R,H,kitchen,1,scaled,k6_large_pot_R_H.png,large,c,1,1002,10,5,k6_large_pot_R_H.png,124160,249143,32,Woman
166575,Gabor-Discrimination,v2,jsons/s4_even.json,-1.084989668,1920,919,1920,1080,2/6/24,18-10-2,1,11,k2,large,k2_large_kettle_R,k2_large_kettle_R,kettle,R,V,kitchen,1,scaled,k2_large_kettle_R_V.png,large,m,1,902,11,6,k2_large_kettle_R_V.png,124160,249143,32,Woman
352249,Gabor-Discrimination,v2,jsons/s10_odd.json,2.6688425805672757,1528,708,1536,864,2/5/24,22-50-37,3,0,k7,small,k7_large_sponge_L,k7_large_sponge_L,sponge,L,H,kitchen,1,misscaled,k7_large_sponge_L_H.png,large,c,1,4918,0,6,k7_large_sponge_L_H.png,128529,347211,27,Man
352249,Gabor-Discrimination,v2,jsons/s10_odd.json,0.2825187932152409,1528,708,1536,864,2/5/24,22-50-37,3,1,c9,small,c9_large_binderclip_L,c9_large_binderclip_L,binderclip,L,V,classroom,1,misscaled,c9_large_binderclip_L_V.png,large,m,1,2163,1,7,c9_large_binderclip_L_V.png,128529,347211,27,Man
352249,Gabor-Discrimination,v2,jsons/s10_odd.json,0.6341875618776459,1528,708,1536,864,2/5/24,22-50-37,3,2,k9,small,k9_large_flashdrive_R,k9_large_flashdrive_R,flashdrive,R,H,classroom,0,misscaled,k9_large_flashdrive_R_H.png,large,c,1,2569,2,7,k9_large_flashdrive_R_H.png,128529,347211,27,Man
352249,Gabor-Discrimination,v2,jsons/s10_odd.json,0.42717072515273263,1528,708,1536,864,2/5/24,22-50-37,3,3,c5,large,c5_large_notebook_L,c5_large_notebook_L,notebook,L,V,classroom,1,scaled,c5_large_notebook_L_V.png,large,m,1,2330,3,6,c5_large_notebook_L_V.png,128529,347211,27,Man
352249,Gabor-Discrimination,v2,jsons/s10_odd.json,-0.592322232,1528,708,1536,864,2/5/24,22-50-37,3,4,c11,large,c11_large_toaster_L,c11_large_toaster_L,toaster,L,H,kitchen,0,scaled,c11_large_toaster_L_H.png,large,c,1,1153,4,4,c11_large_toaster_L_H.png,128529,347211,27,Man
352249,Gabor-Discrimination,v2,jsons/s10_odd.json,-0.635631194,1528,708,1536,864,2/5/24,22-50-37,3,5,c1,large,c1_large_laptop_R,c1_large_laptop_R,laptop,R,V,classroom,1,scaled,c1_large_laptop_R_V.png,large,c,0,1103,5,3,c1_large_laptop_R_V.png,128529,347211,27,Man
352249,Gabor-Discrimination,v2,jsons/s10_odd.json,-0.710122608,1528,708,1536,864,2/5/24,22-50-37,3,6,c7,large,c7_large_pot_R,c7_large_pot_R,pot,R,V,kitchen,0,scaled,c7_large_pot_R_V.png,large,m,1,1017,6,4,c7_large_pot_R_V.png,128529,347211,27,Man
352249,Gabor-Discrimination,v2,jsons/s10_odd.json,0.4930003468727888,1528,708,1536,864,2/5/24,22-50-37,3,7,k3,small,k3_large_spoon_R,k3_large_spoon_R,spoon,R,H,kitchen,1,misscaled,k3_large_spoon_R_H.png,large,c,1,2406,7,4,k3_large_spoon_R_H.png,128529,347211,27,Man
352249,Gabor-Discrimination,v2,jsons/s10_odd.json,-0.761227183,1528,708,1536,864,2/5/24,22-50-37,3,8,k1,large,k1_large_clipboard_R,k1_large_clipboard_R,clipboard,R,V,classroom,0,scaled,k1_large_clipboard_R_V.png,large,m,1,958,8,4,k1_large_clipboard_R_V.png,128529,347211,27,Man
352249,Gabor-Discrimination,v2,jsons/s10_odd.json,-0.655553316,1528,708,1536,864,2/5/24,22-50-37,3,9,c3,large,c3_large_kettle_R,c3_large_kettle_R,kettle,R,H,kitchen,0,scaled,c3_large_kettle_R_H.png,large,c,1,1080,9,4,c3_large_kettle_R_H.png,128529,347211,27,Man
352249,Gabor-Discrimination,v2,jsons/s10_odd.json,-0.435543791,1528,708,1536,864,2/5/24,22-50-37,3,10,k5,small,k5_large_eraser_L,k5_large_eraser_L,eraser,L,H,classroom,0,misscaled,k5_large_eraser_L_H.png,large,c,1,1334,10,6,k5_large_eraser_L_H.png,128529,347211,27,Man
352249,Gabor-Discrimination,v2,jsons/s10_odd.json,-0.715319683,1528,708,1536,864,2/5/24,22-50-37,3,11,k11,small,k11_large_saltshaker_L,k11_large_saltshaker_L,saltshaker,L,V,kitchen,1,misscaled,k11_large_saltshaker_L_V.png,large,m,1,1011,11,5,k11_large_saltshaker_L_V.png,128529,347211,27,Man
317739,Gabor-Discrimination,v2,jsons/s11_odd.json,2.9625058886407816,1536,695,1536,864,2/6/24,13-5-50,1,0,c7,large,c7_large_notebook_R,c7_large_notebook_R,notebook,R,H,classroom,1,scaled,c7_large_notebook_R_H.png,large,c,1,3526,0,5,c7_large_notebook_R_H.png,169535,293214,30,Man
317739,Gabor-Discrimination,v2,jsons/s11_odd.json,0.5078520325332437,1536,695,1536,864,2/6/24,13-5-50,1,1,k11,small,k11_large_flashdrive_R,k11_large_flashdrive_R,flashdrive,R,V,classroom,0,misscaled,k11_large_flashdrive_R_V.png,large,m,1,1616,1,7,k11_large_flashdrive_R_V.png,169535,293214,30,Man
317739,Gabor-Discrimination,v2,jsons/s11_odd.json,-0.27738017,1536,695,1536,864,2/6/24,13-5-50,1,2,c1,small,c1_large_saltshaker_R,c1_large_saltshaker_R,saltshaker,R,V,kitchen,0,misscaled,c1_large_saltshaker_R_V.png,large,m,1,1005,2,7,c1_large_saltshaker_R_V.png,169535,293214,30,Man
317739,Gabor-Discrimination,v2,jsons/s11_odd.json,0.034913488529278336,1536,695,1536,864,2/6/24,13-5-50,1,3,k9,small,k9_large_sponge_L,k9_large_sponge_L,sponge,L,H,kitchen,1,misscaled,k9_large_sponge_L_H.png,large,c,1,1248,3,7,k9_large_sponge_L_H.png,169535,293214,30,Man
317739,Gabor-Discrimination,v2,jsons/s11_odd.json,0.17885130626961565,1536,695,1536,864,2/6/24,13-5-50,1,4,c11,small,c11_large_binderclip_R,c11_large_binderclip_R,binderclip,R,V,classroom,1,misscaled,c11_large_binderclip_R_V.png,large,m,1,1360,4,7,c11_large_binderclip_R_V.png,169535,293214,30,Man
317739,Gabor-Discrimination,v2,jsons/s11_odd.json,-0.439310215,1536,695,1536,864,2/6/24,13-5-50,1,5,k1,large,k1_large_toaster_L,k1_large_toaster_L,toaster,L,H,kitchen,1,scaled,k1_large_toaster_L_H.png,large,c,1,879,5,6,k1_large_toaster_L_H.png,169535,293214,30,Man
317739,Gabor-Discrimination,v2,jsons/s11_odd.json,-0.696342032,1536,695,1536,864,2/6/24,13-5-50,1,6,c9,large,c9_large_pot_R,c9_large_pot_R,pot,R,H,kitchen,0,scaled,c9_large_pot_R_H.png,large,c,1,679,6,4,c9_large_pot_R_H.png,169535,293214,30,Man
317739,Gabor-Discrimination,v2,jsons/s11_odd.json,-0.553689373,1536,695,1536,864,2/6/24,13-5-50,1,7,c3,large,c3_large_laptop_R,c3_large_laptop_R,laptop,R,V,classroom,1,scaled,c3_large_laptop_R_V.png,large,m,1,790,7,4,c3_large_laptop_R_V.png,169535,293214,30,Man
317739,Gabor-Discrimination,v2,jsons/s11_odd.json,-0.596099623,1536,695,1536,864,2/6/24,13-5-50,1,8,c5,large,c5_large_kettle_L,c5_large_kettle_L,kettle,L,V,kitchen,0,scaled,c5_large_kettle_L_V.png,large,m,1,757,8,6,c5_large_kettle_L_V.png,169535,293214,30,Man
317739,Gabor-Discrimination,v2,jsons/s11_odd.json,-0.371196783,1536,695,1536,864,2/6/24,13-5-50,1,9,k5,small,k5_large_spoon_L,k5_large_spoon_L,spoon,L,V,kitchen,1,misscaled,k5_large_spoon_L_V.png,large,m,1,932,9,6,k5_large_spoon_L_V.png,169535,293214,30,Man
317739,Gabor-Discrimination,v2,jsons/s11_odd.json,-0.594814464,1536,695,1536,864,2/6/24,13-5-50,1,10,k3,large,k3_large_clipboard_L,k3_large_clipboard_L,clipboard,L,H,classroom,0,scaled,k3_large_clipboard_L_H.png,large,c,1,758,10,6,k3_large_clipboard_L_H.png,169535,293214,30,Man
317739,Gabor-Discrimination,v2,jsons/s11_odd.json,-0.155290056,1536,695,1536,864,2/6/24,13-5-50,1,11,k7,small,k7_large_eraser_L,k7_large_eraser_L,eraser,L,H,classroom,0,misscaled,k7_large_eraser_L_H.png,large,c,1,1100,11,7,k7_large_eraser_L_H.png,169535,293214,30,Man
959033,Gabor-Discrimination,v2,jsons/s5_even.json,0.6669497944546839,1536,703,1536,864,2/5/24,21-16-41,1,0,c0,large,c0_large_toaster_L,c0_large_toaster_L,toaster,L,H,kitchen,0,scaled,c0_large_toaster_L_H.png,large,c,1,2761,0,5,c0_large_toaster_L_H.png,261719,709042,40,Woman
959033,Gabor-Discrimination,v2,jsons/s5_even.json,-0.342925603,1536,703,1536,864,2/5/24,21-16-41,1,2,k8,large,k8_large_pot_L,k8_large_pot_L,pot,L,V,kitchen,1,scaled,k8_large_pot_L_V.png,large,m,1,1945,2,4,k8_large_pot_L_V.png,261719,709042,40,Woman
959033,Gabor-Discrimination,v2,jsons/s5_even.json,-0.300847461,1536,703,1536,864,2/5/24,21-16-41,1,3,c2,large,c2_large_clipboard_L,c2_large_clipboard_L,clipboard,L,V,classroom,1,scaled,c2_large_clipboard_L_V.png,large,m,1,1979,3,5,c2_large_clipboard_L_V.png,261719,709042,40,Woman
959033,Gabor-Discrimination,v2,jsons/s5_even.json,1.0666921392079722,1536,703,1536,864,2/5/24,21-16-41,1,4,k6,large,k6_large_notebook_R,k6_large_notebook_R,notebook,R,V,classroom,0,scaled,k6_large_notebook_R_V.png,large,m,1,3084,4,5,k6_large_notebook_R_V.png,261719,709042,40,Woman
959033,Gabor-Discrimination,v2,jsons/s5_even.json,0.075380628,1536,703,1536,864,2/5/24,21-16-41,1,5,k2,large,k2_large_laptop_R,k2_large_laptop_R,laptop,R,H,classroom,0,scaled,k2_large_laptop_R_H.png,large,c,1,2283,5,4,k2_large_laptop_R_H.png,261719,709042,40,Woman
959033,Gabor-Discrimination,v2,jsons/s5_even.json,0.035777671,1536,703,1536,864,2/5/24,21-16-41,1,6,c4,small,c4_large_spoon_R,c4_large_spoon_R,spoon,R,V,kitchen,0,misscaled,c4_large_spoon_R_V.png,large,m,1,2251,6,7,c4_large_spoon_R_V.png,261719,709042,40,Woman
959033,Gabor-Discrimination,v2,jsons/s5_even.json,-0.224116733,1536,703,1536,864,2/5/24,21-16-41,1,7,c6,small,c6_large_eraser_L,c6_large_eraser_L,eraser,L,H,classroom,1,misscaled,c6_large_eraser_L_H.png,large,c,1,2041,7,7,c6_large_eraser_L_H.png,261719,709042,40,Woman
959033,Gabor-Discrimination,v2,jsons/s5_even.json,-1.220378613,1536,703,1536,864,2/5/24,21-16-41,1,8,k4,large,k4_large_kettle_L,k4_large_kettle_L,kettle,L,V,kitchen,1,scaled,k4_large_kettle_L_V.png,large,m,1,1236,8,6,k4_large_kettle_L_V.png,261719,709042,40,Woman
959033,Gabor-Discrimination,v2,jsons/s5_even.json,-1.143647885,1536,703,1536,864,2/5/24,21-16-41,1,9,c8,small,c8_large_sponge_R,c8_large_sponge_R,sponge,R,H,kitchen,0,misscaled,c8_large_sponge_R_H.png,large,c,1,1298,9,7,c8_large_sponge_R_H.png,261719,709042,40,Woman
959033,Gabor-Discrimination,v2,jsons/s5_even.json,-0.788458866,1536,703,1536,864,2/5/24,21-16-41,1,10,k0,small,k0_large_saltshaker_L,k0_large_saltshaker_L,saltshaker,L,H,kitchen,1,misscaled,k0_large_saltshaker_L_H.png,large,c,1,1585,10,7,k0_large_saltshaker_L_H.png,261719,709042,40,Woman
959033,Gabor-Discrimination,v2,jsons/s5_even.json,2.1755749283687966,1536,703,1536,864,2/5/24,21-16-41,1,11,k10,small,k10_large_binderclip_R,k10_large_binderclip_R,binderclip,R,H,classroom,0,misscaled,k10_large_binderclip_R_H.png,large,c,1,3980,11,7,k10_large_binderclip_R_H.png,261719,709042,40,Woman
214528,Gabor-Discrimination,v2,jsons/s2_even.json,-0.640380547,1536,730,1536,864,2/5/24,21-32-18,1,0,k10,small,k10_large_spoon_L,k10_large_spoon_L,spoon,L,V,kitchen,1,misscaled,k10_large_spoon_L_V.png,large,m,1,958,0,6,k10_large_spoon_L_V.png,143535,292793,21,Woman
214528,Gabor-Discrimination,v2,jsons/s2_even.json,-1.395633481,1536,730,1536,864,2/5/24,21-32-18,1,1,c0,small,c0_large_eraser_R,c0_large_eraser_R,eraser,R,H,classroom,1,misscaled,c0_large_eraser_R_H.png,large,m,0,815,1,7,c0_large_eraser_R_H.png,143535,292793,21,Woman
214528,Gabor-Discrimination,v2,jsons/s2_even.json,1.007444036096101,1536,730,1536,864,2/5/24,21-32-18,1,2,k8,large,k8_large_clipboard_L,k8_large_clipboard_L,clipboard,L,V,classroom,0,scaled,k8_large_clipboard_L_V.png,large,m,1,1270,2,4,k8_large_clipboard_L_V.png,143535,292793,21,Woman
214528,Gabor-Discrimination,v2,jsons/s2_even.json,-0.841077131,1536,730,1536,864,2/5/24,21-32-18,1,3,c2,small,c2_large_sponge_L,c2_large_sponge_L,sponge,L,V,kitchen,0,misscaled,c2_large_sponge_L_V.png,large,m,1,920,3,7,c2_large_sponge_L_V.png,143535,292793,21,Woman
214528,Gabor-Discrimination,v2,jsons/s2_even.json,0.030368562031730436,1536,730,1536,864,2/5/24,21-32-18,1,4,k6,large,k6_large_toaster_R,k6_large_toaster_R,toaster,R,H,kitchen,1,scaled,k6_large_toaster_R_H.png,large,c,1,1085,4,4,k6_large_toaster_R_H.png,143535,292793,21,Woman
214528,Gabor-Discrimination,v2,jsons/s2_even.json,-1.253033277,1536,730,1536,864,2/5/24,21-32-18,1,5,k2,large,k2_large_pot_R,k2_large_pot_R,pot,R,H,kitchen,1,scaled,k2_large_pot_R_H.png,large,c,1,842,5,4,k2_large_pot_R_H.png,143535,292793,21,Woman
214528,Gabor-Discrimination,v2,jsons/s2_even.json,-0.249550358,1536,730,1536,864,2/5/24,21-32-18,1,6,k0,large,k0_large_notebook_R,k0_large_notebook_R,notebook,R,H,classroom,0,scaled,k0_large_notebook_R_H.png,large,c,1,1032,6,4,k0_large_notebook_R_H.png,143535,292793,21,Woman
214528,Gabor-Discrimination,v2,jsons/s2_even.json,0.35782088306951954,1536,730,1536,864,2/5/24,21-32-18,1,7,c4,small,c4_large_flashdrive_L,c4_large_flashdrive_L,flashdrive,L,H,classroom,1,misscaled,c4_large_flashdrive_L_H.png,large,c,1,1147,7,7,c4_large_flashdrive_L_H.png,143535,292793,21,Woman
214528,Gabor-Discrimination,v2,jsons/s2_even.json,1.6306597438776995,1536,730,1536,864,2/5/24,21-32-18,1,8,c6,small,c6_large_saltshaker_R,c6_large_saltshaker_R,saltshaker,R,V,kitchen,0,misscaled,c6_large_saltshaker_R_V.png,large,m,1,1388,8,7,c6_large_saltshaker_R_V.png,143535,292793,21,Woman
214528,Gabor-Discrimination,v2,jsons/s2_even.json,-0.207298445,1536,730,1536,864,2/5/24,21-32-18,1,9,c10,large,c10_large_kettle_R,c10_large_kettle_R,kettle,R,H,kitchen,0,scaled,c10_large_kettle_R_H.png,large,c,1,1040,9,4,c10_large_kettle_R_H.png,143535,292793,21,Woman
214528,Gabor-Discrimination,v2,jsons/s2_even.json,1.5672818752897406,1536,730,1536,864,2/5/24,21-32-18,1,10,k4,small,k4_large_binderclip_L,k4_large_binderclip_L,binderclip,L,V,classroom,0,misscaled,k4_large_binderclip_L_V.png,large,m,1,1376,10,7,k4_large_binderclip_L_V.png,143535,292793,21,Woman
214528,Gabor-Discrimination,v2,jsons/s2_even.json,-0.006601861,1536,730,1536,864,2/5/24,21-32-18,1,11,c8,large,c8_large_laptop_L,c8_large_laptop_L,laptop,L,V,classroom,1,scaled,c8_large_laptop_L_V.png,large,m,1,1078,11,4,c8_large_laptop_L_V.png,143535,292793,21,Woman
906353,Gabor-Discrimination,v2,jsons/s11_odd.json,0.5619653013395773,1217,598,1280,720,2/5/24,0-22-37,1,0,c7,large,c7_large_notebook_L,c7_large_notebook_L,notebook,L,H,classroom,1,scaled,c7_large_notebook_L_H.png,large,c,1,1722,0,2,c7_large_notebook_L_H.png,196876,395866,21,Woman
906353,Gabor-Discrimination,v2,jsons/s11_odd.json,2.385745475171525,1217,598,1280,720,2/5/24,0-22-37,1,1,k11,small,k11_large_flashdrive_R,k11_large_flashdrive_R,flashdrive,R,H,classroom,0,misscaled,k11_large_flashdrive_R_H.png,large,c,1,2509,1,7,k11_large_flashdrive_R_H.png,196876,395866,21,Woman
906353,Gabor-Discrimination,v2,jsons/s11_odd.json,-0.11239306,1217,598,1280,720,2/5/24,0-22-37,1,2,c1,small,c1_large_saltshaker_L,c1_large_saltshaker_L,saltshaker,L,H,kitchen,0,misscaled,c1_large_saltshaker_L_H.png,large,c,1,1431,2,4,c1_large_saltshaker_L_H.png,196876,395866,21,Woman
906353,Gabor-Discrimination,v2,jsons/s11_odd.json,0.3302270327459372,1217,598,1280,720,2/5/24,0-22-37,1,3,k9,small,k9_large_sponge_L,k9_large_sponge_L,sponge,L,H,kitchen,1,misscaled,k9_large_sponge_L_H.png,large,c,1,1622,3,7,k9_large_sponge_L_H.png,196876,395866,21,Woman
906353,Gabor-Discrimination,v2,jsons/s11_odd.json,0.9953158636096844,1217,598,1280,720,2/5/24,0-22-37,1,4,c11,small,c11_large_binderclip_L,c11_large_binderclip_L,binderclip,L,V,classroom,1,misscaled,c11_large_binderclip_L_V.png,large,m,1,1909,4,3,c11_large_binderclip_L_V.png,196876,395866,21,Woman
906353,Gabor-Discrimination,v2,jsons/s11_odd.json,-0.049823728,1217,598,1280,720,2/5/24,0-22-37,1,5,k1,large,k1_large_toaster_R,k1_large_toaster_R,toaster,R,H,kitchen,1,scaled,k1_large_toaster_R_H.png,large,c,1,1458,5,4,k1_large_toaster_R_H.png,196876,395866,21,Woman
906353,Gabor-Discrimination,v2,jsons/s11_odd.json,-0.865542433,1217,598,1280,720,2/5/24,0-22-37,1,6,c9,large,c9_large_pot_R,c9_large_pot_R,pot,R,V,kitchen,0,scaled,c9_large_pot_R_V.png,large,m,1,1106,6,4,c9_large_pot_R_V.png,196876,395866,21,Woman
906353,Gabor-Discrimination,v2,jsons/s11_odd.json,-0.522569796,1217,598,1280,720,2/5/24,0-22-37,1,7,c3,large,c3_large_laptop_L,c3_large_laptop_L,laptop,L,V,classroom,1,scaled,c3_large_laptop_L_V.png,large,m,1,1254,7,4,c3_large_laptop_L_V.png,196876,395866,21,Woman
906353,Gabor-Discrimination,v2,jsons/s11_odd.json,-1.057885196,1217,598,1280,720,2/5/24,0-22-37,1,8,c5,large,c5_large_kettle_L,c5_large_kettle_L,kettle,L,V,kitchen,0,scaled,c5_large_kettle_L_V.png,large,m,1,1023,8,4,c5_large_kettle_L_V.png,196876,395866,21,Woman
906353,Gabor-Discrimination,v2,jsons/s11_odd.json,0.12166259101166108,1217,598,1280,720,2/5/24,0-22-37,1,9,k5,small,k5_large_spoon_R,k5_large_spoon_R,spoon,R,V,kitchen,1,misscaled,k5_large_spoon_R_V.png,large,m,1,1532,9,2,k5_large_spoon_R_V.png,196876,395866,21,Woman
906353,Gabor-Discrimination,v2,jsons/s11_odd.json,-0.643073695,1217,598,1280,720,2/5/24,0-22-37,1,10,k3,large,k3_large_clipboard_R,k3_large_clipboard_R,clipboard,R,H,classroom,0,scaled,k3_large_clipboard_R_H.png,large,c,1,1202,10,1,k3_large_clipboard_R_H.png,196876,395866,21,Woman
906353,Gabor-Discrimination,v2,jsons/s11_odd.json,-1.143628356,1217,598,1280,720,2/5/24,0-22-37,1,11,k7,small,k7_large_eraser_R,k7_large_eraser_R,eraser,R,V,classroom,0,misscaled,k7_large_eraser_R_V.png,large,m,1,986,11,4,k7_large_eraser_R_V.png,196876,395866,21,Woman
568669,Gabor-Discrimination,v2,jsons/s1_odd.json,1.2793796737236134,1280,657,1280,768,2/6/24,14-9-2,2,0,c11,large,c11_large_notebook_R,c11_large_notebook_R,notebook,R,V,classroom,1,scaled,c11_large_notebook_R_V.png,large,m,1,1715,0,4,c11_large_notebook_R_V.png,220752,821284,68,Woman
568669,Gabor-Discrimination,v2,jsons/s1_odd.json,1.9910687189991256,1280,657,1280,768,2/6/24,14-9-2,2,1,k5,large,k5_large_toaster_R,k5_large_toaster_R,toaster,R,V,kitchen,1,scaled,k5_large_toaster_R_V.png,large,m,1,1965,1,6,k5_large_toaster_R_V.png,220752,821284,68,Woman
568669,Gabor-Discrimination,v2,jsons/s1_odd.json,-0.610866431,1280,657,1280,768,2/6/24,14-9-2,2,2,c5,small,c5_large_saltshaker_L,c5_large_saltshaker_L,saltshaker,L,H,kitchen,0,misscaled,c5_large_saltshaker_L_H.png,large,c,1,1051,2,7,c5_large_saltshaker_L_H.png,220752,821284,68,Woman
568669,Gabor-Discrimination,v2,jsons/s1_odd.json,-1.336789257,1280,657,1280,768,2/6/24,14-9-2,2,3,c1,small,c1_large_sponge_R,c1_large_sponge_R,sponge,R,H,kitchen,0,misscaled,c1_large_sponge_R_H.png,large,m,0,796,3,6,c1_large_sponge_R_H.png,220752,821284,68,Woman
568669,Gabor-Discrimination,v2,jsons/s1_odd.json,0.17199151927491574,1280,657,1280,768,2/6/24,14-9-2,2,4,c9,large,c9_large_kettle_R,c9_large_kettle_R,kettle,R,V,kitchen,0,scaled,c9_large_kettle_R_V.png,large,m,1,1326,4,5,c9_large_kettle_R_V.png,220752,821284,68,Woman
568669,Gabor-Discrimination,v2,jsons/s1_odd.json,-0.12691788,1280,657,1280,768,2/6/24,14-9-2,2,5,k3,small,k3_large_binderclip_L,k3_large_binderclip_L,binderclip,L,V,classroom,0,misscaled,k3_large_binderclip_L_V.png,large,m,1,1221,5,7,k3_large_binderclip_L_V.png,220752,821284,68,Woman
568669,Gabor-Discrimination,v2,jsons/s1_odd.json,-0.494149427,1280,657,1280,768,2/6/24,14-9-2,2,6,k11,small,k11_large_eraser_R,k11_large_eraser_R,eraser,R,V,classroom,0,misscaled,k11_large_eraser_R_V.png,large,m,1,1092,6,7,k11_large_eraser_R_V.png,220752,821284,68,Woman
568669,Gabor-Discrimination,v2,jsons/s1_odd.json,-0.155385442,1280,657,1280,768,2/6/24,14-9-2,2,7,k7,large,k7_large_clipboard_L,k7_large_clipboard_L,clipboard,L,H,classroom,0,scaled,k7_large_clipboard_L_H.png,large,c,1,1211,7,5,k7_large_clipboard_L_H.png,220752,821284,68,Woman
568669,Gabor-Discrimination,v2,jsons/s1_odd.json,-1.06634742,1280,657,1280,768,2/6/24,14-9-2,2,8,k1,large,k1_large_pot_L,k1_large_pot_L,pot,L,H,kitchen,1,scaled,k1_large_pot_L_H.png,large,c,1,891,8,5,k1_large_pot_L_H.png,220752,821284,68,Woman
568669,Gabor-Discrimination,v2,jsons/s1_odd.json,-0.468528621,1280,657,1280,768,2/6/24,14-9-2,2,9,k9,small,k9_large_spoon_L,k9_large_spoon_L,spoon,L,V,kitchen,1,misscaled,k9_large_spoon_L_V.png,large,m,1,1101,9,6,k9_large_spoon_L_V.png,220752,821284,68,Woman
568669,Gabor-Discrimination,v2,jsons/s1_odd.json,1.1939769882905518,1280,657,1280,768,2/6/24,14-9-2,2,10,c7,large,c7_large_laptop_R,c7_large_laptop_R,laptop,R,H,classroom,1,scaled,c7_large_laptop_R_H.png,large,c,1,1685,10,4,c7_large_laptop_R_H.png,220752,821284,68,Woman
568669,Gabor-Discrimination,v2,jsons/s1_odd.json,-0.377432424,1280,657,1280,768,2/6/24,14-9-2,2,11,c3,small,c3_large_flashdrive_L,c3_large_flashdrive_L,flashdrive,L,H,classroom,1,misscaled,c3_large_flashdrive_L_H.png,large,c,1,1133,11,7,c3_large_flashdrive_L_H.png,220752,821284,68,Woman
527415,Gabor-Discrimination,v2,jsons/s6_odd.json,0.068888831,1366,633,1366,768,2/5/24,20-30-20,2,0,c11,small,c11_large_sponge_L,c11_large_sponge_L,sponge,L,H,kitchen,0,misscaled,c11_large_sponge_L_H.png,large,c,1,1293,0,7,c11_large_sponge_L_H.png,133379,292965,31,Woman
527415,Gabor-Discrimination,v2,jsons/s6_odd.json,-0.40005623,1366,633,1366,768,2/5/24,20-30-20,2,1,k7,large,k7_large_kettle_L,k7_large_kettle_L,kettle,L,H,kitchen,1,scaled,k7_large_kettle_L_H.png,large,c,1,1137,1,5,k7_large_kettle_L_H.png,133379,292965,31,Woman
527415,Gabor-Discrimination,v2,jsons/s6_odd.json,-0.905073988,1366,633,1366,768,2/5/24,20-30-20,2,2,c9,small,c9_large_eraser_R,c9_large_eraser_R,eraser,R,H,classroom,1,misscaled,c9_large_eraser_R_H.png,large,c,1,969,2,7,c9_large_eraser_R_H.png,133379,292965,31,Woman
527415,Gabor-Discrimination,v2,jsons/s6_odd.json,2.491771647628484,1366,633,1366,768,2/5/24,20-30-20,2,3,c7,small,c7_large_spoon_R,c7_large_spoon_R,spoon,R,V,kitchen,0,misscaled,c7_large_spoon_R_V.png,large,m,1,2099,3,6,c7_large_spoon_R_V.png,133379,292965,31,Woman
527415,Gabor-Discrimination,v2,jsons/s6_odd.json,-0.063377725,1366,633,1366,768,2/5/24,20-30-20,2,4,k11,large,k11_large_pot_R,k11_large_pot_R,pot,R,V,kitchen,1,scaled,k11_large_pot_R_V.png,large,m,1,1249,4,4,k11_large_pot_R_V.png,133379,292965,31,Woman
527415,Gabor-Discrimination,v2,jsons/s6_odd.json,0.8414457589609006,1366,633,1366,768,2/5/24,20-30-20,2,5,c1,small,c1_large_binderclip_L,c1_large_binderclip_L,binderclip,L,V,classroom,1,misscaled,c1_large_binderclip_L_V.png,large,m,1,1550,5,7,c1_large_binderclip_L_V.png,133379,292965,31,Woman
527415,Gabor-Discrimination,v2,jsons/s6_odd.json,0.1891311545148796,1366,633,1366,768,2/5/24,20-30-20,2,6,c5,large,c5_large_clipboard_L,c5_large_clipboard_L,clipboard,L,H,classroom,1,scaled,c5_large_clipboard_L_H.png,large,c,1,1333,6,4,c5_large_clipboard_L_H.png,133379,292965,31,Woman
527415,Gabor-Discrimination,v2,jsons/s6_odd.json,-0.222698803,1366,633,1366,768,2/5/24,20-30-20,2,7,c3,large,c3_large_toaster_L,c3_large_toaster_L,toaster,L,H,kitchen,0,scaled,c3_large_toaster_L_H.png,large,c,1,1196,7,4,c3_large_toaster_L_H.png,133379,292965,31,Woman
527415,Gabor-Discrimination,v2,jsons/s6_odd.json,-1.674624858,1366,633,1366,768,2/5/24,20-30-20,2,8,k5,large,k5_large_laptop_L,k5_large_laptop_L,laptop,L,H,classroom,0,scaled,k5_large_laptop_L_H.png,large,c,1,713,8,4,k5_large_laptop_L_H.png,133379,292965,31,Woman
527415,Gabor-Discrimination,v2,jsons/s6_odd.json,0.056864598774672565,1366,633,1366,768,2/5/24,20-30-20,2,9,k9,large,k9_large_notebook_R,k9_large_notebook_R,notebook,R,V,classroom,0,scaled,k9_large_notebook_R_V.png,large,m,1,1289,9,5,k9_large_notebook_R_V.png,133379,292965,31,Woman
527415,Gabor-Discrimination,v2,jsons/s6_odd.json,-0.445147101,1366,633,1366,768,2/5/24,20-30-20,2,10,k3,small,k3_large_saltshaker_R,k3_large_saltshaker_R,saltshaker,R,V,kitchen,1,misscaled,k3_large_saltshaker_R_V.png,large,m,1,1122,10,7,k3_large_saltshaker_R_V.png,133379,292965,31,Woman
527415,Gabor-Discrimination,v2,jsons/s6_odd.json,0.062876715,1366,633,1366,768,2/5/24,20-30-20,2,11,k1,small,k1_large_flashdrive_R,k1_large_flashdrive_R,flashdrive,R,V,classroom,0,misscaled,k1_large_flashdrive_R_V.png,large,m,1,1291,11,7,k1_large_flashdrive_R_V.png,133379,292965,31,Woman
486712,Gabor-Discrimination,v2,jsons/s6_odd.json,-0.08215817,1263,593,1280,720,2/5/24,21-26-53,1,0,c11,small,c11_large_sponge_L,c11_large_sponge_L,sponge,L,V,kitchen,0,misscaled,c11_large_sponge_L_V.png,large,m,1,1415,0,7,c11_large_sponge_L_V.png,167709,382496,21,Woman
486712,Gabor-Discrimination,v2,jsons/s6_odd.json,-0.639643692,1263,593,1280,720,2/5/24,21-26-53,1,1,k7,large,k7_large_kettle_R,k7_large_kettle_R,kettle,R,V,kitchen,1,scaled,k7_large_kettle_R_V.png,large,m,1,1009,1,4,k7_large_kettle_R_V.png,167709,382496,21,Woman
486712,Gabor-Discrimination,v2,jsons/s6_odd.json,-1.15730882,1263,593,1280,720,2/5/24,21-26-53,1,2,c9,small,c9_large_eraser_R,c9_large_eraser_R,eraser,R,V,classroom,1,misscaled,c9_large_eraser_R_V.png,large,m,1,632,2,7,c9_large_eraser_R_V.png,167709,382496,21,Woman
486712,Gabor-Discrimination,v2,jsons/s6_odd.json,-0.253797801,1263,593,1280,720,2/5/24,21-26-53,1,3,c7,small,c7_large_spoon_L,c7_large_spoon_L,spoon,L,H,kitchen,0,misscaled,c7_large_spoon_L_H.png,large,c,1,1290,3,6,c7_large_spoon_L_H.png,167709,382496,21,Woman
486712,Gabor-Discrimination,v2,jsons/s6_odd.json,0.8570538914492255,1263,593,1280,720,2/5/24,21-26-53,1,4,k11,large,k11_large_pot_L,k11_large_pot_L,pot,L,H,kitchen,1,scaled,k11_large_pot_L_H.png,large,c,1,2099,4,4,k11_large_pot_L_H.png,167709,382496,21,Woman
486712,Gabor-Discrimination,v2,jsons/s6_odd.json,-0.774209163,1263,593,1280,720,2/5/24,21-26-53,1,5,c1,small,c1_large_binderclip_L,c1_large_binderclip_L,binderclip,L,V,classroom,1,misscaled,c1_large_binderclip_L_V.png,large,m,1,911,5,6,c1_large_binderclip_L_V.png,167709,382496,21,Woman
486712,Gabor-Discrimination,v2,jsons/s6_odd.json,-0.367766516,1263,593,1280,720,2/5/24,21-26-53,1,6,c5,large,c5_large_clipboard_L,c5_large_clipboard_L,clipboard,L,H,classroom,1,scaled,c5_large_clipboard_L_H.png,large,c,1,1207,6,5,c5_large_clipboard_L_H.png,167709,382496,21,Woman
486712,Gabor-Discrimination,v2,jsons/s6_odd.json,2.7368511315998094,1263,593,1280,720,2/5/24,21-26-53,1,7,c3,large,c3_large_toaster_R,c3_large_toaster_R,toaster,R,H,kitchen,0,scaled,c3_large_toaster_R_H.png,large,c,1,3468,7,5,c3_large_toaster_R_H.png,167709,382496,21,Woman
486712,Gabor-Discrimination,v2,jsons/s6_odd.json,0.037303013165880944,1263,593,1280,720,2/5/24,21-26-53,1,8,k5,large,k5_large_laptop_R,k5_large_laptop_R,laptop,R,H,classroom,0,scaled,k5_large_laptop_R_H.png,large,c,1,1502,8,4,k5_large_laptop_R_H.png,167709,382496,21,Woman
486712,Gabor-Discrimination,v2,jsons/s6_odd.json,-0.385617038,1263,593,1280,720,2/5/24,21-26-53,1,9,k9,large,k9_large_notebook_L,k9_large_notebook_L,notebook,L,V,classroom,0,scaled,k9_large_notebook_L_V.png,large,m,1,1194,9,4,k9_large_notebook_L_V.png,167709,382496,21,Woman
486712,Gabor-Discrimination,v2,jsons/s6_odd.json,-0.172783895,1263,593,1280,720,2/5/24,21-26-53,1,10,k3,small,k3_large_saltshaker_R,k3_large_saltshaker_R,saltshaker,R,V,kitchen,1,misscaled,k3_large_saltshaker_R_V.png,large,m,1,1349,10,7,k3_large_saltshaker_R_V.png,167709,382496,21,Woman
486712,Gabor-Discrimination,v2,jsons/s6_odd.json,0.20207705905198034,1263,593,1280,720,2/5/24,21-26-53,1,11,k1,small,k1_large_flashdrive_R,k1_large_flashdrive_R,flashdrive,R,H,classroom,0,misscaled,k1_large_flashdrive_R_H.png,large,c,1,1622,11,7,k1_large_flashdrive_R_H.png,167709,382496,21,Woman
325895,Gabor-Discrimination,v2,jsons/s2_even.json,2.9635236485183847,1528,750,1536,864,2/5/24,20-28-52,2,0,k10,small,k10_large_spoon_R,k10_large_spoon_R,spoon,R,H,kitchen,1,misscaled,k10_large_spoon_R_H.png,large,c,1,3589,0,5,k10_large_spoon_R_H.png,142767,323907,34,Woman
325895,Gabor-Discrimination,v2,jsons/s2_even.json,-0.509609467,1528,750,1536,864,2/5/24,20-28-52,2,1,c0,small,c0_large_eraser_L,c0_large_eraser_L,eraser,L,V,classroom,1,misscaled,c0_large_eraser_L_V.png,large,m,1,1077,1,7,c0_large_eraser_L_V.png,142767,323907,34,Woman
325895,Gabor-Discrimination,v2,jsons/s2_even.json,-0.457070033,1528,750,1536,864,2/5/24,20-28-52,2,2,k8,large,k8_large_clipboard_L,k8_large_clipboard_L,clipboard,L,H,classroom,0,scaled,k8_large_clipboard_L_H.png,large,c,1,1115,2,4,k8_large_clipboard_L_H.png,142767,323907,34,Woman
325895,Gabor-Discrimination,v2,jsons/s2_even.json,-0.929924939,1528,750,1536,864,2/5/24,20-28-52,2,3,c2,small,c2_large_sponge_L,c2_large_sponge_L,sponge,L,V,kitchen,0,misscaled,c2_large_sponge_L_V.png,large,m,1,773,3,7,c2_large_sponge_L_V.png,142767,323907,34,Woman
325895,Gabor-Discrimination,v2,jsons/s2_even.json,-0.571827218,1528,750,1536,864,2/5/24,20-28-52,2,4,k6,large,k6_large_toaster_R,k6_large_toaster_R,toaster,R,H,kitchen,1,scaled,k6_large_toaster_R_H.png,large,c,1,1032,4,4,k6_large_toaster_R_H.png,142767,323907,34,Woman
325895,Gabor-Discrimination,v2,jsons/s2_even.json,-0.334017148,1528,750,1536,864,2/5/24,20-28-52,2,5,k2,large,k2_large_pot_L,k2_large_pot_L,pot,L,V,kitchen,1,scaled,k2_large_pot_L_V.png,large,c,0,1204,5,4,k2_large_pot_L_V.png,142767,323907,34,Woman
325895,Gabor-Discrimination,v2,jsons/s2_even.json,0.3130474613360465,1528,750,1536,864,2/5/24,20-28-52,2,6,k0,large,k0_large_notebook_R,k0_large_notebook_R,notebook,R,V,classroom,0,scaled,k0_large_notebook_R_V.png,large,m,1,1672,6,4,k0_large_notebook_R_V.png,142767,323907,34,Woman
325895,Gabor-Discrimination,v2,jsons/s2_even.json,-0.375495648,1528,750,1536,864,2/5/24,20-28-52,2,7,c4,small,c4_large_flashdrive_R,c4_large_flashdrive_R,flashdrive,R,V,classroom,1,misscaled,c4_large_flashdrive_R_V.png,large,m,1,1174,7,7,c4_large_flashdrive_R_V.png,142767,323907,34,Woman
325895,Gabor-Discrimination,v2,jsons/s2_even.json,-0.110033245,1528,750,1536,864,2/5/24,20-28-52,2,8,c6,small,c6_large_saltshaker_R,c6_large_saltshaker_R,saltshaker,R,H,kitchen,0,misscaled,c6_large_saltshaker_R_H.png,large,c,1,1366,8,7,c6_large_saltshaker_R_H.png,142767,323907,34,Woman
325895,Gabor-Discrimination,v2,jsons/s2_even.json,-0.310512664,1528,750,1536,864,2/5/24,20-28-52,2,9,c10,large,c10_large_kettle_R,c10_large_kettle_R,kettle,R,V,kitchen,0,scaled,c10_large_kettle_R_V.png,large,m,1,1221,9,4,c10_large_kettle_R_V.png,142767,323907,34,Woman
325895,Gabor-Discrimination,v2,jsons/s2_even.json,0.3130474613360465,1528,750,1536,864,2/5/24,20-28-52,2,10,k4,small,k4_large_binderclip_L,k4_large_binderclip_L,binderclip,L,H,classroom,0,misscaled,k4_large_binderclip_L_H.png,large,c,1,1672,10,7,k4_large_binderclip_L_H.png,142767,323907,34,Woman
325895,Gabor-Discrimination,v2,jsons/s2_even.json,0.00887179,1528,750,1536,864,2/5/24,20-28-52,2,11,c8,large,c8_large_laptop_L,c8_large_laptop_L,laptop,L,H,classroom,1,scaled,c8_large_laptop_L_H.png,large,c,1,1452,11,4,c8_large_laptop_L_H.png,142767,323907,34,Woman
768413,Gabor-Discrimination,v2,jsons/s10_even.json,1.2787356097303149,1920,945,1920,1080,2/5/24,23-49-10,2,0,k8,small,k8_large_flashdrive_R,k8_large_flashdrive_R,flashdrive,R,V,classroom,0,misscaled,k8_large_flashdrive_R_V.png,large,m,1,1853,0,7,k8_large_flashdrive_R_V.png,182579,483095,25,Woman
768413,Gabor-Discrimination,v2,jsons/s10_even.json,-0.986538373,1920,945,1920,1080,2/5/24,23-49-10,2,1,k0,large,k0_large_clipboard_R,k0_large_clipboard_R,clipboard,R,V,classroom,0,scaled,k0_large_clipboard_R_V.png,large,m,1,840,1,5,k0_large_clipboard_R_V.png,182579,483095,25,Woman
768413,Gabor-Discrimination,v2,jsons/s10_even.json,-0.409597912,1920,945,1920,1080,2/5/24,23-49-10,2,2,k2,small,k2_large_spoon_L,k2_large_spoon_L,spoon,L,H,kitchen,1,misscaled,k2_large_spoon_L_H.png,large,c,1,1098,2,5,k2_large_spoon_L_H.png,182579,483095,25,Woman
768413,Gabor-Discrimination,v2,jsons/s10_even.json,0.11814607644549965,1920,945,1920,1080,2/5/24,23-49-10,2,3,c8,small,c8_large_binderclip_L,c8_large_binderclip_L,binderclip,L,V,classroom,1,misscaled,c8_large_binderclip_L_V.png,large,m,1,1334,3,7,c8_large_binderclip_L_V.png,182579,483095,25,Woman
768413,Gabor-Discrimination,v2,jsons/s10_even.json,1.4755215036206113,1920,945,1920,1080,2/5/24,23-49-10,2,4,c0,large,c0_large_laptop_R,c0_large_laptop_R,laptop,R,V,classroom,1,scaled,c0_large_laptop_R_V.png,large,m,1,1941,4,4,c0_large_laptop_R_V.png,182579,483095,25,Woman
