,subjID,experimentName,versionName,sequenceName,windowWidth,windowHeight,screenWidth,screenHeight,startDate,startTime,pracTries,trialNum,scene,object,side,objectCategory,objSceneSemCong,scale,image,presentationSize,keyPress,accuracy,RT,ratingTrialNum,rating,thisRatingTrialFile,experimentTime,totalTime,age,gender
0,135620,OSSe5,v2,jsons/s16.json,1366,619,1366,768,9-2-2023,12-14-31,1,0,c5,clipboard,L,classroom,1,misscaled,c5_small_clipboard_L.png,small,c,1,3256,0,1,c5_small_clipboard_L.png,594051,643174,30,Man
1,135620,OSSe5,v2,jsons/s16.json,1366,619,1366,768,9-2-2023,12-14-31,1,1,c10,notebook,L,classroom,1,misscaled,c10_small_notebook_L.png,small,c,1,1906,1,4,c10_small_notebook_L.png,594051,643174,30,Man
2,135620,OSSe5,v2,jsons/s16.json,1366,619,1366,768,9-2-2023,12-14-31,1,2,c8,kettle,L,kitchen,0,misscaled,c8_small_kettle_L.png,small,c,1,1282,2,4,c8_small_kettle_L.png,594051,643174,30,Man
3,135620,OSSe5,v2,jsons/s16.json,1366,619,1366,768,9-2-2023,12-14-31,1,3,k1,sponge,R,kitchen,1,scaled,k1_small_sponge_R.png,small,m,1,18635,3,7,k1_small_sponge_R.png,594051,643174,30,Man
4,135620,OSSe5,v2,jsons/s16.json,1366,619,1366,768,9-2-2023,12-14-31,1,4,c4,binderclip,R,classroom,1,scaled,c4_small_binderclip_R.png,small,m,1,1546,4,7,c4_small_binderclip_R.png,594051,643174,30,Man
5,135620,OSSe5,v2,jsons/s16.json,1366,619,1366,768,9-2-2023,12-14-31,1,5,k6,eraser,R,classroom,0,misscaled,k6_large_eraser_R.png,large,m,1,1593,5,7,k6_large_eraser_R.png,594051,643174,30,Man
6,135620,OSSe5,v2,jsons/s16.json,1366,619,1366,768,9-2-2023,12-14-31,1,6,k2,spoon,R,kitchen,1,scaled,k2_small_spoon_R.png,small,m,1,1689,6,7,k2_small_spoon_R.png,594051,643174,30,Man
7,135620,OSSe5,v2,jsons/s16.json,1366,619,1366,768,9-2-2023,12-14-31,1,7,k3,toaster,R,kitchen,1,misscaled,k3_small_toaster_R.png,small,m,1,1818,7,4,k3_small_toaster_R.png,594051,643174,30,Man
8,135620,OSSe5,v2,jsons/s16.json,1366,619,1366,768,9-2-2023,12-14-31,1,8,k0,saltshaker,L,kitchen,1,scaled,k0_small_saltshaker_L.png,small,none,0,29999,8,1,k0_small_saltshaker_L.png,594051,643174,30,Man
9,135620,OSSe5,v2,jsons/s16.json,1366,619,1366,768,9-2-2023,12-14-31,1,9,k5,clipboard,L,classroom,0,scaled,k5_large_clipboard_L.png,large,none,0,30001,9,7,k5_large_clipboard_L.png,594051,643174,30,Man
10,135620,OSSe5,v2,jsons/s16.json,1366,619,1366,768,9-2-2023,12-14-31,1,10,c9,laptop,R,classroom,1,misscaled,c9_small_laptop_R.png,small,none,0,29999,10,4,c9_small_laptop_R.png,594051,643174,30,Man
11,135620,OSSe5,v2,jsons/s16.json,1366,619,1366,768,9-2-2023,12-14-31,1,11,k8,kettle,R,kitchen,1,scaled,k8_large_kettle_R.png,large,none,0,30001,11,7,k8_large_kettle_R.png,594051,643174,30,Man
12,135620,OSSe5,v2,jsons/s16.json,1366,619,1366,768,9-2-2023,12-14-31,1,12,k7,flashdrive,L,classroom,0,misscaled,k7_large_flashdrive_L.png,large,none,0,30001,12,7,k7_large_flashdrive_L.png,594051,643174,30,Man
13,135620,OSSe5,v2,jsons/s16.json,1366,619,1366,768,9-2-2023,12-14-31,1,13,k9,laptop,R,classroom,0,scaled,k9_large_laptop_R.png,large,none,0,30000,13,7,k9_large_laptop_R.png,594051,643174,30,Man
14,135620,OSSe5,v2,jsons/s16.json,1366,619,1366,768,9-2-2023,12-14-31,1,14,c2,spoon,L,kitchen,0,misscaled,c2_large_spoon_L.png,large,none,0,29999,14,3,c2_large_spoon_L.png,594051,643174,30,Man
15,135620,OSSe5,v2,jsons/s16.json,1366,619,1366,768,9-2-2023,12-14-31,1,15,c6,eraser,L,classroom,1,scaled,c6_small_eraser_L.png,small,c,1,7620,15,4,c6_small_eraser_L.png,594051,643174,30,Man
16,135620,OSSe5,v2,jsons/s16.json,1366,619,1366,768,9-2-2023,12-14-31,1,16,k11,pot,L,kitchen,1,scaled,k11_large_pot_L.png,large,c,1,2449,16,7,k11_large_pot_L.png,594051,643174,30,Man
17,135620,OSSe5,v2,jsons/s16.json,1366,619,1366,768,9-2-2023,12-14-31,1,17,c7,flashdrive,L,classroom,1,scaled,c7_small_flashdrive_L.png,small,c,1,19298,17,4,c7_small_flashdrive_L.png,594051,643174,30,Man
18,135620,OSSe5,v2,jsons/s16.json,1366,619,1366,768,9-2-2023,12-14-31,1,18,c3,toaster,L,kitchen,0,scaled,c3_large_toaster_L.png,large,c,1,14811,18,7,c3_large_toaster_L.png,594051,643174,30,Man
19,135620,OSSe5,v2,jsons/s16.json,1366,619,1366,768,9-2-2023,12-14-31,1,19,c0,saltshaker,R,kitchen,0,misscaled,c0_large_saltshaker_R.png,large,m,1,4104,19,7,c0_large_saltshaker_R.png,594051,643174,30,Man
20,135620,OSSe5,v2,jsons/s16.json,1366,619,1366,768,9-2-2023,12-14-31,1,20,k4,binderclip,R,classroom,0,misscaled,k4_large_binderclip_R.png,large,m,1,4589,20,7,k4_large_binderclip_R.png,594051,643174,30,Man
21,135620,OSSe5,v2,jsons/s16.json,1366,619,1366,768,9-2-2023,12-14-31,1,21,c1,sponge,R,kitchen,0,misscaled,c1_large_sponge_R.png,large,m,1,4263,21,7,c1_large_sponge_R.png,594051,643174,30,Man
22,135620,OSSe5,v2,jsons/s16.json,1366,619,1366,768,9-2-2023,12-14-31,1,22,k10,notebook,L,classroom,0,scaled,k10_large_notebook_L.png,large,m,0,348,22,7,k10_large_notebook_L.png,594051,643174,30,Man
23,135620,OSSe5,v2,jsons/s16.json,1366,619,1366,768,9-2-2023,12-14-31,1,23,c11,pot,R,kitchen,0,misscaled,c11_small_pot_R.png,small,m,1,2706,23,4,c11_small_pot_R.png,594051,643174,30,Man
