,subjID,experimentName,versionName,sequenceName,windowWidth,windowHeight,screenWidth,screenHeight,startDate,startTime,pracTries,trialNum,scene,object,side,objectCategory,objSceneSemCong,scale,image,presentationSize,keyPress,accuracy,RT,ratingTrialNum,rating,thisRatingTrialFile,experimentTime,totalTime,age,gender
0,149876,OSSe5,v2,jsons/s8.json,1478,723,1477,831,9-3-2023,11-20-57,1,0,k4,saltshaker,R,kitchen,1,misscaled,k4_large_saltshaker_R.png,large,m,1,654,0,7,k4_large_saltshaker_R.png,265665,376513,35,Woman
1,149876,OSSe5,v2,jsons/s8.json,1478,723,1477,831,9-3-2023,11-20-57,1,1,c2,notebook,R,classroom,1,misscaled,c2_small_notebook_R.png,small,m,1,1064,1,4,c2_small_notebook_R.png,265665,376513,35,Woman
2,149876,OSSe5,v2,jsons/s8.json,1478,723,1477,831,9-3-2023,11-20-57,1,2,c6,spoon,L,kitchen,0,scaled,c6_small_spoon_L.png,small,c,1,941,2,4,c6_small_spoon_L.png,265665,376513,35,Woman
3,149876,OSSe5,v2,jsons/s8.json,1478,723,1477,831,9-3-2023,11-20-57,1,3,c3,pot,L,kitchen,0,misscaled,c3_small_pot_L.png,small,c,1,836,3,1,c3_small_pot_L.png,265665,376513,35,Woman
4,149876,OSSe5,v2,jsons/s8.json,1478,723,1477,831,9-3-2023,11-20-57,1,4,c0,kettle,L,kitchen,0,misscaled,c0_small_kettle_L.png,small,m,0,4361,4,4,c0_small_kettle_L.png,265665,376513,35,Woman
5,149876,OSSe5,v2,jsons/s8.json,1478,723,1477,831,9-3-2023,11-20-57,1,5,c1,laptop,R,classroom,1,misscaled,c1_small_laptop_R.png,small,m,1,839,5,1,c1_small_laptop_R.png,265665,376513,35,Woman
6,149876,OSSe5,v2,jsons/s8.json,1478,723,1477,831,9-3-2023,11-20-57,1,6,c8,binderclip,L,classroom,1,misscaled,c8_large_binderclip_L.png,large,c,1,2689,6,7,c8_large_binderclip_L.png,265665,376513,35,Woman
7,149876,OSSe5,v2,jsons/s8.json,1478,723,1477,831,9-3-2023,11-20-57,1,7,k9,clipboard,R,classroom,0,misscaled,k9_small_clipboard_R.png,small,m,1,643,7,2,k9_small_clipboard_R.png,265665,376513,35,Woman
8,149876,OSSe5,v2,jsons/s8.json,1478,723,1477,831,9-3-2023,11-20-57,1,8,k0,kettle,R,kitchen,1,scaled,k0_large_kettle_R.png,large,m,1,590,8,4,k0_large_kettle_R.png,265665,376513,35,Woman
9,149876,OSSe5,v2,jsons/s8.json,1478,723,1477,831,9-3-2023,11-20-57,1,9,k10,eraser,L,classroom,0,scaled,k10_small_eraser_L.png,small,c,1,833,9,4,k10_small_eraser_L.png,265665,376513,35,Woman
10,149876,OSSe5,v2,jsons/s8.json,1478,723,1477,831,9-3-2023,11-20-57,1,10,k7,toaster,L,kitchen,1,scaled,k7_large_toaster_L.png,large,c,1,5685,10,7,k7_large_toaster_L.png,265665,376513,35,Woman
11,149876,OSSe5,v2,jsons/s8.json,1478,723,1477,831,9-3-2023,11-20-57,1,11,c4,saltshaker,L,kitchen,0,scaled,c4_small_saltshaker_L.png,small,c,1,788,11,4,c4_small_saltshaker_L.png,265665,376513,35,Woman
12,149876,OSSe5,v2,jsons/s8.json,1478,723,1477,831,9-3-2023,11-20-57,1,12,c11,flashdrive,R,classroom,1,misscaled,c11_large_flashdrive_R.png,large,m,1,662,12,7,c11_large_flashdrive_R.png,265665,376513,35,Woman
13,149876,OSSe5,v2,jsons/s8.json,1478,723,1477,831,9-3-2023,11-20-57,1,13,k5,sponge,R,kitchen,1,misscaled,k5_large_sponge_R.png,large,m,1,536,13,7,k5_large_sponge_R.png,265665,376513,35,Woman
14,149876,OSSe5,v2,jsons/s8.json,1478,723,1477,831,9-3-2023,11-20-57,1,14,k8,binderclip,L,classroom,0,scaled,k8_small_binderclip_L.png,small,c,1,4580,14,4,k8_small_binderclip_L.png,265665,376513,35,Woman
15,149876,OSSe5,v2,jsons/s8.json,1478,723,1477,831,9-3-2023,11-20-57,1,15,k11,flashdrive,R,classroom,0,scaled,k11_small_flashdrive_R.png,small,m,1,492,15,4,k11_small_flashdrive_R.png,265665,376513,35,Woman
16,149876,OSSe5,v2,jsons/s8.json,1478,723,1477,831,9-3-2023,11-20-57,1,16,c7,toaster,L,kitchen,0,misscaled,c7_small_toaster_L.png,small,c,1,831,16,4,c7_small_toaster_L.png,265665,376513,35,Woman
17,149876,OSSe5,v2,jsons/s8.json,1478,723,1477,831,9-3-2023,11-20-57,1,17,k3,pot,L,kitchen,1,scaled,k3_large_pot_L.png,large,c,1,926,17,4,k3_large_pot_L.png,265665,376513,35,Woman
18,149876,OSSe5,v2,jsons/s8.json,1478,723,1477,831,9-3-2023,11-20-57,1,18,k6,spoon,L,kitchen,1,misscaled,k6_large_spoon_L.png,large,c,1,759,18,6,k6_large_spoon_L.png,265665,376513,35,Woman
19,149876,OSSe5,v2,jsons/s8.json,1478,723,1477,831,9-3-2023,11-20-57,1,19,c10,eraser,R,classroom,1,misscaled,c10_large_eraser_R.png,large,m,1,789,19,7,c10_large_eraser_R.png,265665,376513,35,Woman
20,149876,OSSe5,v2,jsons/s8.json,1478,723,1477,831,9-3-2023,11-20-57,1,20,k1,laptop,L,classroom,0,scaled,k1_large_laptop_L.png,large,c,1,509,20,4,k1_large_laptop_L.png,265665,376513,35,Woman
21,149876,OSSe5,v2,jsons/s8.json,1478,723,1477,831,9-3-2023,11-20-57,1,21,c9,clipboard,R,classroom,1,scaled,c9_large_clipboard_R.png,large,m,1,634,21,4,c9_large_clipboard_R.png,265665,376513,35,Woman
22,149876,OSSe5,v2,jsons/s8.json,1478,723,1477,831,9-3-2023,11-20-57,1,22,k2,notebook,R,classroom,0,scaled,k2_large_notebook_R.png,large,m,1,785,22,4,k2_large_notebook_R.png,265665,376513,35,Woman
23,149876,OSSe5,v2,jsons/s8.json,1478,723,1477,831,9-3-2023,11-20-57,1,23,c5,sponge,R,kitchen,0,scaled,c5_small_sponge_R.png,small,m,1,535,23,4,c5_small_sponge_R.png,265665,376513,35,Woman
