,subjID,experimentName,versionName,sequenceName,windowWidth,windowHeight,screenWidth,screenHeight,startDate,startTime,pracTries,trialNum,scene,object,side,objectCategory,objSceneSemCong,scale,image,presentationSize,keyPress,accuracy,RT,ratingTrialNum,rating,thisRatingTrialFile,experimentTime,totalTime,age,gender
0,239187,OSSe5,v2,jsons/s14.json,1707,960,1280,720,9-3-2023,10-18-11,1,0,k10,saltshaker,L,kitchen,1,misscaled,k10_large_saltshaker_L.png,large,c,1,1106,0,6,k10_large_saltshaker_L.png,270426,386772,64,Woman
1,239187,OSSe5,v2,jsons/s14.json,1707,960,1280,720,9-3-2023,10-18-11,1,1,k9,pot,L,kitchen,1,scaled,k9_large_pot_L.png,large,c,1,2093,1,4,k9_large_pot_L.png,270426,386772,64,Woman
2,239187,OSSe5,v2,jsons/s14.json,1707,960,1280,720,9-3-2023,10-18-11,1,2,k1,toaster,L,kitchen,1,misscaled,k1_small_toaster_L.png,small,c,1,2840,2,1,k1_small_toaster_L.png,270426,386772,64,Woman
3,239187,OSSe5,v2,jsons/s14.json,1707,960,1280,720,9-3-2023,10-18-11,1,3,c1,toaster,L,kitchen,0,scaled,c1_large_toaster_L.png,large,c,1,1006,3,6,c1_large_toaster_L.png,270426,386772,64,Woman
4,239187,OSSe5,v2,jsons/s14.json,1707,960,1280,720,9-3-2023,10-18-11,1,4,k11,sponge,R,kitchen,1,misscaled,k11_large_sponge_R.png,large,m,1,2083,4,7,k11_large_sponge_R.png,270426,386772,64,Woman
5,239187,OSSe5,v2,jsons/s14.json,1707,960,1280,720,9-3-2023,10-18-11,1,5,k4,eraser,R,classroom,0,misscaled,k4_large_eraser_R.png,large,m,1,2822,5,7,k4_large_eraser_R.png,270426,386772,64,Woman
6,239187,OSSe5,v2,jsons/s14.json,1707,960,1280,720,9-3-2023,10-18-11,1,6,c11,sponge,R,kitchen,0,scaled,c11_small_sponge_R.png,small,m,1,2188,6,2,c11_small_sponge_R.png,270426,386772,64,Woman
7,239187,OSSe5,v2,jsons/s14.json,1707,960,1280,720,9-3-2023,10-18-11,1,7,k5,flashdrive,R,classroom,0,misscaled,k5_large_flashdrive_R.png,large,m,1,13938,7,4,k5_large_flashdrive_R.png,270426,386772,64,Woman
8,239187,OSSe5,v2,jsons/s14.json,1707,960,1280,720,9-3-2023,10-18-11,1,8,c2,binderclip,R,classroom,1,scaled,c2_small_binderclip_R.png,small,m,1,2141,8,2,c2_small_binderclip_R.png,270426,386772,64,Woman
9,239187,OSSe5,v2,jsons/s14.json,1707,960,1280,720,9-3-2023,10-18-11,1,9,k0,spoon,R,kitchen,1,scaled,k0_small_spoon_R.png,small,m,1,1613,9,4,k0_small_spoon_R.png,270426,386772,64,Woman
10,239187,OSSe5,v2,jsons/s14.json,1707,960,1280,720,9-3-2023,10-18-11,1,10,c8,notebook,R,classroom,1,misscaled,c8_small_notebook_R.png,small,m,1,1689,10,4,c8_small_notebook_R.png,270426,386772,64,Woman
11,239187,OSSe5,v2,jsons/s14.json,1707,960,1280,720,9-3-2023,10-18-11,1,11,k3,clipboard,R,classroom,0,scaled,k3_large_clipboard_R.png,large,m,1,2027,11,6,k3_large_clipboard_R.png,270426,386772,64,Woman
12,239187,OSSe5,v2,jsons/s14.json,1707,960,1280,720,9-3-2023,10-18-11,1,12,c7,laptop,R,classroom,1,misscaled,c7_small_laptop_R.png,small,m,1,4288,12,5,c7_small_laptop_R.png,270426,386772,64,Woman
13,239187,OSSe5,v2,jsons/s14.json,1707,960,1280,720,9-3-2023,10-18-11,1,13,k2,binderclip,L,classroom,0,misscaled,k2_large_binderclip_L.png,large,c,1,1427,13,7,k2_large_binderclip_L.png,270426,386772,64,Woman
14,239187,OSSe5,v2,jsons/s14.json,1707,960,1280,720,9-3-2023,10-18-11,1,14,c3,clipboard,R,classroom,1,misscaled,c3_small_clipboard_R.png,small,m,1,996,14,5,c3_small_clipboard_R.png,270426,386772,64,Woman
15,239187,OSSe5,v2,jsons/s14.json,1707,960,1280,720,9-3-2023,10-18-11,1,15,c0,spoon,R,kitchen,0,misscaled,c0_large_spoon_R.png,large,m,1,984,15,4,c0_large_spoon_R.png,270426,386772,64,Woman
16,239187,OSSe5,v2,jsons/s14.json,1707,960,1280,720,9-3-2023,10-18-11,1,16,c10,saltshaker,R,kitchen,0,scaled,c10_small_saltshaker_R.png,small,m,1,1277,16,5,c10_small_saltshaker_R.png,270426,386772,64,Woman
17,239187,OSSe5,v2,jsons/s14.json,1707,960,1280,720,9-3-2023,10-18-11,1,17,k7,laptop,L,classroom,0,scaled,k7_large_laptop_L.png,large,m,0,7321,17,3,k7_large_laptop_L.png,270426,386772,64,Woman
18,239187,OSSe5,v2,jsons/s14.json,1707,960,1280,720,9-3-2023,10-18-11,1,18,c5,flashdrive,L,classroom,1,scaled,c5_small_flashdrive_L.png,small,c,1,1602,18,5,c5_small_flashdrive_L.png,270426,386772,64,Woman
19,239187,OSSe5,v2,jsons/s14.json,1707,960,1280,720,9-3-2023,10-18-11,1,19,c4,eraser,L,classroom,1,scaled,c4_small_eraser_L.png,small,c,1,1122,19,4,c4_small_eraser_L.png,270426,386772,64,Woman
20,239187,OSSe5,v2,jsons/s14.json,1707,960,1280,720,9-3-2023,10-18-11,1,20,k8,notebook,L,classroom,0,scaled,k8_large_notebook_L.png,large,m,0,6382,20,3,k8_large_notebook_L.png,270426,386772,64,Woman
21,239187,OSSe5,v2,jsons/s14.json,1707,960,1280,720,9-3-2023,10-18-11,1,21,c9,pot,L,kitchen,0,misscaled,c9_small_pot_L.png,small,c,1,6098,21,5,c9_small_pot_L.png,270426,386772,64,Woman
22,239187,OSSe5,v2,jsons/s14.json,1707,960,1280,720,9-3-2023,10-18-11,1,22,k6,kettle,L,kitchen,1,scaled,k6_large_kettle_L.png,large,c,1,1113,22,4,k6_large_kettle_L.png,270426,386772,64,Woman
23,239187,OSSe5,v2,jsons/s14.json,1707,960,1280,720,9-3-2023,10-18-11,1,23,c6,kettle,L,kitchen,0,misscaled,c6_small_kettle_L.png,small,c,1,1889,23,3,c6_small_kettle_L.png,270426,386772,64,Woman
