,subjID,experimentName,versionName,sequenceName,windowWidth,windowHeight,screenWidth,screenHeight,startDate,startTime,pracTries,trialNum,scene,object,side,objectCategory,objSceneSemCong,scale,image,presentationSize,keyPress,accuracy,RT,ratingTrialNum,rating,thisRatingTrialFile,experimentTime,totalTime,age,gender
0,316702,OSSe5,v2,jsons/s2.json,1366,619,1366,768,9-2-2023,7-54-19,1,0,c3,clipboard,R,classroom,1,scaled,c3_large_clipboard_R.png,large,m,1,1321,0,4,c3_large_clipboard_R.png,424238,597083,35,Man
1,316702,OSSe5,v2,jsons/s2.json,1366,619,1366,768,9-2-2023,7-54-19,1,1,k7,laptop,L,classroom,0,misscaled,k7_small_laptop_L.png,small,c,1,1946,1,3,k7_small_laptop_L.png,424238,597083,35,Man
2,316702,OSSe5,v2,jsons/s2.json,1366,619,1366,768,9-2-2023,7-54-19,1,2,c1,toaster,L,kitchen,0,misscaled,c1_small_toaster_L.png,small,c,1,1173,2,1,c1_small_toaster_L.png,424238,597083,35,Man
3,316702,OSSe5,v2,jsons/s2.json,1366,619,1366,768,9-2-2023,7-54-19,1,3,k11,sponge,R,kitchen,1,scaled,k11_small_sponge_R.png,small,m,1,2943,3,4,k11_small_sponge_R.png,424238,597083,35,Man
4,316702,OSSe5,v2,jsons/s2.json,1366,619,1366,768,9-2-2023,7-54-19,1,4,k0,spoon,R,kitchen,1,misscaled,k0_large_spoon_R.png,large,m,1,5154,4,7,k0_large_spoon_R.png,424238,597083,35,Man
5,316702,OSSe5,v2,jsons/s2.json,1366,619,1366,768,9-2-2023,7-54-19,1,5,c6,kettle,R,kitchen,0,scaled,c6_large_kettle_R.png,large,m,1,1988,5,4,c6_large_kettle_R.png,424238,597083,35,Man
6,316702,OSSe5,v2,jsons/s2.json,1366,619,1366,768,9-2-2023,7-54-19,1,6,k8,notebook,L,classroom,0,misscaled,k8_small_notebook_L.png,small,c,1,2638,6,4,k8_small_notebook_L.png,424238,597083,35,Man
7,316702,OSSe5,v2,jsons/s2.json,1366,619,1366,768,9-2-2023,7-54-19,1,7,k9,pot,R,kitchen,1,misscaled,k9_small_pot_R.png,small,m,1,2620,7,1,k9_small_pot_R.png,424238,597083,35,Man
8,316702,OSSe5,v2,jsons/s2.json,1366,619,1366,768,9-2-2023,7-54-19,1,8,k5,flashdrive,R,classroom,0,scaled,k5_small_flashdrive_R.png,small,m,1,2866,8,5,k5_small_flashdrive_R.png,424238,597083,35,Man
9,316702,OSSe5,v2,jsons/s2.json,1366,619,1366,768,9-2-2023,7-54-19,1,9,c11,sponge,R,kitchen,0,misscaled,c11_large_sponge_R.png,large,m,1,1610,9,7,c11_large_sponge_R.png,424238,597083,35,Man
10,316702,OSSe5,v2,jsons/s2.json,1366,619,1366,768,9-2-2023,7-54-19,1,10,c0,spoon,L,kitchen,0,scaled,c0_small_spoon_L.png,small,c,1,2308,10,5,c0_small_spoon_L.png,424238,597083,35,Man
11,316702,OSSe5,v2,jsons/s2.json,1366,619,1366,768,9-2-2023,7-54-19,1,11,c5,flashdrive,L,classroom,1,misscaled,c5_large_flashdrive_L.png,large,c,1,4964,11,7,c5_large_flashdrive_L.png,424238,597083,35,Man
12,316702,OSSe5,v2,jsons/s2.json,1366,619,1366,768,9-2-2023,7-54-19,1,12,k2,binderclip,L,classroom,0,scaled,k2_small_binderclip_L.png,small,c,1,92,12,6,k2_small_binderclip_L.png,424238,597083,35,Man
13,316702,OSSe5,v2,jsons/s2.json,1366,619,1366,768,9-2-2023,7-54-19,1,13,c8,notebook,R,classroom,1,scaled,c8_large_notebook_R.png,large,m,1,2341,13,7,c8_large_notebook_R.png,424238,597083,35,Man
14,316702,OSSe5,v2,jsons/s2.json,1366,619,1366,768,9-2-2023,7-54-19,1,14,c9,pot,R,kitchen,0,scaled,c9_large_pot_R.png,large,m,1,2906,14,4,c9_large_pot_R.png,424238,597083,35,Man
15,316702,OSSe5,v2,jsons/s2.json,1366,619,1366,768,9-2-2023,7-54-19,1,15,c4,eraser,L,classroom,1,misscaled,c4_large_eraser_L.png,large,c,1,2435,15,7,c4_large_eraser_L.png,424238,597083,35,Man
16,316702,OSSe5,v2,jsons/s2.json,1366,619,1366,768,9-2-2023,7-54-19,1,16,k4,eraser,L,classroom,0,scaled,k4_small_eraser_L.png,small,c,1,5013,16,7,k4_small_eraser_L.png,424238,597083,35,Man
17,316702,OSSe5,v2,jsons/s2.json,1366,619,1366,768,9-2-2023,7-54-19,1,17,c10,saltshaker,R,kitchen,0,misscaled,c10_large_saltshaker_R.png,large,m,1,1248,17,7,c10_large_saltshaker_R.png,424238,597083,35,Man
18,316702,OSSe5,v2,jsons/s2.json,1366,619,1366,768,9-2-2023,7-54-19,1,18,k1,toaster,R,kitchen,1,scaled,k1_large_toaster_R.png,large,m,1,2903,18,7,k1_large_toaster_R.png,424238,597083,35,Man
19,316702,OSSe5,v2,jsons/s2.json,1366,619,1366,768,9-2-2023,7-54-19,1,19,c2,binderclip,L,classroom,1,misscaled,c2_large_binderclip_L.png,large,c,1,4557,19,7,c2_large_binderclip_L.png,424238,597083,35,Man
20,316702,OSSe5,v2,jsons/s2.json,1366,619,1366,768,9-2-2023,7-54-19,1,20,k3,clipboard,R,classroom,0,misscaled,k3_small_clipboard_R.png,small,m,1,2959,20,4,k3_small_clipboard_R.png,424238,597083,35,Man
21,316702,OSSe5,v2,jsons/s2.json,1366,619,1366,768,9-2-2023,7-54-19,1,21,k6,kettle,L,kitchen,1,misscaled,k6_small_kettle_L.png,small,c,1,1745,21,1,k6_small_kettle_L.png,424238,597083,35,Man
22,316702,OSSe5,v2,jsons/s2.json,1366,619,1366,768,9-2-2023,7-54-19,1,22,k10,saltshaker,L,kitchen,1,scaled,k10_small_saltshaker_L.png,small,c,1,4646,22,4,k10_small_saltshaker_L.png,424238,597083,35,Man
23,316702,OSSe5,v2,jsons/s2.json,1366,619,1366,768,9-2-2023,7-54-19,1,23,c7,laptop,L,classroom,1,scaled,c7_large_laptop_L.png,large,c,1,2145,23,4,c7_large_laptop_L.png,424238,597083,35,Man
