,subjID,experimentName,versionName,sequenceName,windowWidth,windowHeight,screenWidth,screenHeight,startDate,startTime,pracTries,trialNum,scene,object,side,objectCategory,objSceneSemCong,scale,image,presentationSize,keyPress,accuracy,RT,ratingTrialNum,rating,thisRatingTrialFile,experimentTime,totalTime,age,gender
0,372031,OSSe5,v2,jsons/s14.json,1366,651,1366,768,9-5-2023,12-47-1,2,0,k10,saltshaker,L,kitchen,1,misscaled,k10_large_saltshaker_L.png,large,c,1,4946,0,3,k10_large_saltshaker_L.png,453346,872690,35,Man
1,372031,OSSe5,v2,jsons/s14.json,1366,651,1366,768,9-5-2023,12-47-1,2,1,k9,pot,L,kitchen,1,scaled,k9_large_pot_L.png,large,c,1,2261,1,4,k9_large_pot_L.png,453346,872690,35,Man
2,372031,OSSe5,v2,jsons/s14.json,1366,651,1366,768,9-5-2023,12-47-1,2,2,k1,toaster,L,kitchen,1,misscaled,k1_small_toaster_L.png,small,c,1,2854,2,2,k1_small_toaster_L.png,453346,872690,35,Man
3,372031,OSSe5,v2,jsons/s14.json,1366,651,1366,768,9-5-2023,12-47-1,2,3,c1,toaster,L,kitchen,0,scaled,c1_large_toaster_L.png,large,c,1,1761,3,3,c1_large_toaster_L.png,453346,872690,35,Man
4,372031,OSSe5,v2,jsons/s14.json,1366,651,1366,768,9-5-2023,12-47-1,2,4,k11,sponge,R,kitchen,1,misscaled,k11_large_sponge_R.png,large,m,1,5167,4,3,k11_large_sponge_R.png,453346,872690,35,Man
5,372031,OSSe5,v2,jsons/s14.json,1366,651,1366,768,9-5-2023,12-47-1,2,5,k4,eraser,L,classroom,0,misscaled,k4_large_eraser_L.png,large,c,1,2586,5,4,k4_large_eraser_L.png,453346,872690,35,Man
6,372031,OSSe5,v2,jsons/s14.json,1366,651,1366,768,9-5-2023,12-47-1,2,6,c11,sponge,R,kitchen,0,scaled,c11_small_sponge_R.png,small,m,1,9742,6,1,c11_small_sponge_R.png,453346,872690,35,Man
7,372031,OSSe5,v2,jsons/s14.json,1366,651,1366,768,9-5-2023,12-47-1,2,7,k5,flashdrive,L,classroom,0,misscaled,k5_large_flashdrive_L.png,large,c,1,5441,7,1,k5_large_flashdrive_L.png,453346,872690,35,Man
8,372031,OSSe5,v2,jsons/s14.json,1366,651,1366,768,9-5-2023,12-47-1,2,8,c2,binderclip,R,classroom,1,scaled,c2_small_binderclip_R.png,small,m,1,3328,8,1,c2_small_binderclip_R.png,453346,872690,35,Man
9,372031,OSSe5,v2,jsons/s14.json,1366,651,1366,768,9-5-2023,12-47-1,2,9,k0,spoon,L,kitchen,1,scaled,k0_small_spoon_L.png,small,c,1,3857,9,2,k0_small_spoon_L.png,453346,872690,35,Man
10,372031,OSSe5,v2,jsons/s14.json,1366,651,1366,768,9-5-2023,12-47-1,2,10,c8,notebook,R,classroom,1,misscaled,c8_small_notebook_R.png,small,m,1,3531,10,2,c8_small_notebook_R.png,453346,872690,35,Man
11,372031,OSSe5,v2,jsons/s14.json,1366,651,1366,768,9-5-2023,12-47-1,2,11,k3,clipboard,R,classroom,0,scaled,k3_large_clipboard_R.png,large,c,0,7745,11,4,k3_large_clipboard_R.png,453346,872690,35,Man
12,372031,OSSe5,v2,jsons/s14.json,1366,651,1366,768,9-5-2023,12-47-1,2,12,c7,laptop,R,classroom,1,misscaled,c7_small_laptop_R.png,small,m,1,4711,12,1,c7_small_laptop_R.png,453346,872690,35,Man
13,372031,OSSe5,v2,jsons/s14.json,1366,651,1366,768,9-5-2023,12-47-1,2,13,k2,binderclip,L,classroom,0,misscaled,k2_large_binderclip_L.png,large,c,1,2820,13,3,k2_large_binderclip_L.png,453346,872690,35,Man
14,372031,OSSe5,v2,jsons/s14.json,1366,651,1366,768,9-5-2023,12-47-1,2,14,c3,clipboard,R,classroom,1,misscaled,c3_small_clipboard_R.png,small,m,1,3875,14,1,c3_small_clipboard_R.png,453346,872690,35,Man
15,372031,OSSe5,v2,jsons/s14.json,1366,651,1366,768,9-5-2023,12-47-1,2,15,c0,spoon,L,kitchen,0,misscaled,c0_large_spoon_L.png,large,c,1,2469,15,2,c0_large_spoon_L.png,453346,872690,35,Man
16,372031,OSSe5,v2,jsons/s14.json,1366,651,1366,768,9-5-2023,12-47-1,2,16,c10,saltshaker,R,kitchen,0,scaled,c10_small_saltshaker_R.png,small,m,1,3074,16,1,c10_small_saltshaker_R.png,453346,872690,35,Man
17,372031,OSSe5,v2,jsons/s14.json,1366,651,1366,768,9-5-2023,12-47-1,2,17,k7,laptop,R,classroom,0,scaled,k7_large_laptop_R.png,large,m,1,3896,17,6,k7_large_laptop_R.png,453346,872690,35,Man
18,372031,OSSe5,v2,jsons/s14.json,1366,651,1366,768,9-5-2023,12-47-1,2,18,c5,flashdrive,R,classroom,1,scaled,c5_small_flashdrive_R.png,small,m,1,5293,18,1,c5_small_flashdrive_R.png,453346,872690,35,Man
19,372031,OSSe5,v2,jsons/s14.json,1366,651,1366,768,9-5-2023,12-47-1,2,19,c4,eraser,L,classroom,1,scaled,c4_small_eraser_L.png,small,c,1,1961,19,1,c4_small_eraser_L.png,453346,872690,35,Man
20,372031,OSSe5,v2,jsons/s14.json,1366,651,1366,768,9-5-2023,12-47-1,2,20,k8,notebook,L,classroom,0,scaled,k8_large_notebook_L.png,large,c,1,3460,20,4,k8_large_notebook_L.png,453346,872690,35,Man
21,372031,OSSe5,v2,jsons/s14.json,1366,651,1366,768,9-5-2023,12-47-1,2,21,c9,pot,R,kitchen,0,misscaled,c9_small_pot_R.png,small,m,1,2827,21,2,c9_small_pot_R.png,453346,872690,35,Man
22,372031,OSSe5,v2,jsons/s14.json,1366,651,1366,768,9-5-2023,12-47-1,2,22,k6,kettle,R,kitchen,1,scaled,k6_large_kettle_R.png,large,m,1,4037,22,6,k6_large_kettle_R.png,453346,872690,35,Man
23,372031,OSSe5,v2,jsons/s14.json,1366,651,1366,768,9-5-2023,12-47-1,2,23,c6,kettle,L,kitchen,0,misscaled,c6_small_kettle_L.png,small,c,1,2768,23,3,c6_small_kettle_L.png,453346,872690,35,Man
