,subjID,experimentName,versionName,sequenceName,windowWidth,windowHeight,screenWidth,screenHeight,startDate,startTime,pracTries,trialNum,scene,object,side,objectCategory,objSceneSemCong,scale,image,presentationSize,keyPress,accuracy,RT,ratingTrialNum,rating,thisRatingTrialFile,experimentTime,totalTime,age,gender
0,415503,OSSe5,v2,jsons/s6.json,1366,619,1366,768,9-2-2023,12-9-49,1,0,k6,binderclip,L,classroom,0,scaled,k6_small_binderclip_L.png,small,c,1,2071,0,5,k6_small_binderclip_L.png,238985,533528,30,Man
1,415503,OSSe5,v2,jsons/s6.json,1366,619,1366,768,9-2-2023,12-9-49,1,1,c7,clipboard,R,classroom,1,scaled,c7_large_clipboard_R.png,large,m,1,1614,1,4,c7_large_clipboard_R.png,238985,533528,30,Man
2,415503,OSSe5,v2,jsons/s6.json,1366,619,1366,768,9-2-2023,12-9-49,1,2,k1,pot,R,kitchen,1,scaled,k1_large_pot_R.png,large,m,1,1538,2,4,k1_large_pot_R.png,238985,533528,30,Man
3,415503,OSSe5,v2,jsons/s6.json,1366,619,1366,768,9-2-2023,12-9-49,1,3,c4,spoon,L,kitchen,0,scaled,c4_small_spoon_L.png,small,c,1,2432,3,2,c4_small_spoon_L.png,238985,533528,30,Man
4,415503,OSSe5,v2,jsons/s6.json,1366,619,1366,768,9-2-2023,12-9-49,1,4,k5,toaster,R,kitchen,1,scaled,k5_large_toaster_R.png,large,m,1,1460,4,6,k5_large_toaster_R.png,238985,533528,30,Man
5,415503,OSSe5,v2,jsons/s6.json,1366,619,1366,768,9-2-2023,12-9-49,1,5,c1,pot,R,kitchen,0,misscaled,c1_small_pot_R.png,small,m,1,1543,5,1,c1_small_pot_R.png,238985,533528,30,Man
6,415503,OSSe5,v2,jsons/s6.json,1366,619,1366,768,9-2-2023,12-9-49,1,6,k10,kettle,R,kitchen,1,misscaled,k10_small_kettle_R.png,small,m,1,1513,6,1,k10_small_kettle_R.png,238985,533528,30,Man
7,415503,OSSe5,v2,jsons/s6.json,1366,619,1366,768,9-2-2023,12-9-49,1,7,k9,flashdrive,R,classroom,0,scaled,k9_small_flashdrive_R.png,small,m,1,1688,7,3,k9_small_flashdrive_R.png,238985,533528,30,Man
8,415503,OSSe5,v2,jsons/s6.json,1366,619,1366,768,9-2-2023,12-9-49,1,8,c8,eraser,L,classroom,1,misscaled,c8_large_eraser_L.png,large,c,1,1986,8,7,c8_large_eraser_L.png,238985,533528,30,Man
9,415503,OSSe5,v2,jsons/s6.json,1366,619,1366,768,9-2-2023,12-9-49,1,9,c6,binderclip,L,classroom,1,misscaled,c6_large_binderclip_L.png,large,c,1,1657,9,7,c6_large_binderclip_L.png,238985,533528,30,Man
10,415503,OSSe5,v2,jsons/s6.json,1366,619,1366,768,9-2-2023,12-9-49,1,10,c10,kettle,R,kitchen,0,scaled,c10_large_kettle_R.png,large,m,1,1513,10,4,c10_large_kettle_R.png,238985,533528,30,Man
11,415503,OSSe5,v2,jsons/s6.json,1366,619,1366,768,9-2-2023,12-9-49,1,11,k7,clipboard,R,classroom,0,misscaled,k7_small_clipboard_R.png,small,m,1,2138,11,2,k7_small_clipboard_R.png,238985,533528,30,Man
12,415503,OSSe5,v2,jsons/s6.json,1366,619,1366,768,9-2-2023,12-9-49,1,12,c9,flashdrive,R,classroom,1,misscaled,c9_large_flashdrive_R.png,large,m,1,1776,12,5,c9_large_flashdrive_R.png,238985,533528,30,Man
13,415503,OSSe5,v2,jsons/s6.json,1366,619,1366,768,9-2-2023,12-9-49,1,13,k2,saltshaker,L,kitchen,1,misscaled,k2_large_saltshaker_L.png,large,c,1,1738,13,6,k2_large_saltshaker_L.png,238985,533528,30,Man
14,415503,OSSe5,v2,jsons/s6.json,1366,619,1366,768,9-2-2023,12-9-49,1,14,k0,notebook,R,classroom,0,scaled,k0_large_notebook_R.png,large,m,1,1689,14,4,k0_large_notebook_R.png,238985,533528,30,Man
15,415503,OSSe5,v2,jsons/s6.json,1366,619,1366,768,9-2-2023,12-9-49,1,15,k3,sponge,L,kitchen,1,misscaled,k3_large_sponge_L.png,large,c,1,2241,15,5,k3_large_sponge_L.png,238985,533528,30,Man
16,415503,OSSe5,v2,jsons/s6.json,1366,619,1366,768,9-2-2023,12-9-49,1,16,k11,laptop,L,classroom,0,misscaled,k11_small_laptop_L.png,small,c,1,2131,16,1,k11_small_laptop_L.png,238985,533528,30,Man
17,415503,OSSe5,v2,jsons/s6.json,1366,619,1366,768,9-2-2023,12-9-49,1,17,k8,eraser,L,classroom,0,scaled,k8_small_eraser_L.png,small,c,1,1449,17,4,k8_small_eraser_L.png,238985,533528,30,Man
18,415503,OSSe5,v2,jsons/s6.json,1366,619,1366,768,9-2-2023,12-9-49,1,18,c2,saltshaker,L,kitchen,0,scaled,c2_small_saltshaker_L.png,small,c,1,2583,18,2,c2_small_saltshaker_L.png,238985,533528,30,Man
19,415503,OSSe5,v2,jsons/s6.json,1366,619,1366,768,9-2-2023,12-9-49,1,19,c11,laptop,L,classroom,1,scaled,c11_large_laptop_L.png,large,c,1,1675,19,4,c11_large_laptop_L.png,238985,533528,30,Man
20,415503,OSSe5,v2,jsons/s6.json,1366,619,1366,768,9-2-2023,12-9-49,1,20,c5,toaster,R,kitchen,0,misscaled,c5_small_toaster_R.png,small,m,1,1510,20,1,c5_small_toaster_R.png,238985,533528,30,Man
21,415503,OSSe5,v2,jsons/s6.json,1366,619,1366,768,9-2-2023,12-9-49,1,21,c0,notebook,R,classroom,1,misscaled,c0_small_notebook_R.png,small,m,1,1238,21,2,c0_small_notebook_R.png,238985,533528,30,Man
22,415503,OSSe5,v2,jsons/s6.json,1366,619,1366,768,9-2-2023,12-9-49,1,22,c3,sponge,L,kitchen,0,scaled,c3_small_sponge_L.png,small,c,1,1330,22,2,c3_small_sponge_L.png,238985,533528,30,Man
23,415503,OSSe5,v2,jsons/s6.json,1366,619,1366,768,9-2-2023,12-9-49,1,23,k4,spoon,L,kitchen,1,misscaled,k4_large_spoon_L.png,large,c,1,1538,23,4,k4_large_spoon_L.png,238985,533528,30,Man
