,subjID,experimentName,versionName,sequenceName,windowWidth,windowHeight,screenWidth,screenHeight,startDate,startTime,pracTries,trialNum,scene,object,side,objectCategory,objSceneSemCong,scale,image,presentationSize,keyPress,accuracy,RT,ratingTrialNum,rating,thisRatingTrialFile,experimentTime,totalTime,age,gender
0,469999,OSSe5,v2,jsons/s2.json,1366,768,1366,768,9-2-2023,14-53-44,2,0,c3,clipboard,R,classroom,1,scaled,c3_large_clipboard_R.png,large,m,1,1497,0,4,c3_large_clipboard_R.png,311766,481006,28,Woman
1,469999,OSSe5,v2,jsons/s2.json,1366,768,1366,768,9-2-2023,14-53-44,2,1,k7,laptop,L,classroom,0,misscaled,k7_small_laptop_L.png,small,c,1,1042,1,2,k7_small_laptop_L.png,311766,481006,28,Woman
2,469999,OSSe5,v2,jsons/s2.json,1366,768,1366,768,9-2-2023,14-53-44,2,2,c1,toaster,R,kitchen,0,misscaled,c1_small_toaster_R.png,small,m,1,1420,2,3,c1_small_toaster_R.png,311766,481006,28,Woman
3,469999,OSSe5,v2,jsons/s2.json,1366,768,1366,768,9-2-2023,14-53-44,2,3,k11,sponge,L,kitchen,1,scaled,k11_small_sponge_L.png,small,c,1,1179,3,4,k11_small_sponge_L.png,311766,481006,28,Woman
4,469999,OSSe5,v2,jsons/s2.json,1366,768,1366,768,9-2-2023,14-53-44,2,4,k0,spoon,L,kitchen,1,misscaled,k0_large_spoon_L.png,large,c,1,1083,4,2,k0_large_spoon_L.png,311766,481006,28,Woman
5,469999,OSSe5,v2,jsons/s2.json,1366,768,1366,768,9-2-2023,14-53-44,2,5,c6,kettle,L,kitchen,0,scaled,c6_large_kettle_L.png,large,c,1,1703,5,4,c6_large_kettle_L.png,311766,481006,28,Woman
6,469999,OSSe5,v2,jsons/s2.json,1366,768,1366,768,9-2-2023,14-53-44,2,6,k8,notebook,R,classroom,0,misscaled,k8_small_notebook_R.png,small,m,1,1272,6,5,k8_small_notebook_R.png,311766,481006,28,Woman
7,469999,OSSe5,v2,jsons/s2.json,1366,768,1366,768,9-2-2023,14-53-44,2,7,k9,pot,L,kitchen,1,misscaled,k9_small_pot_L.png,small,c,1,1663,7,2,k9_small_pot_L.png,311766,481006,28,Woman
8,469999,OSSe5,v2,jsons/s2.json,1366,768,1366,768,9-2-2023,14-53-44,2,8,k5,flashdrive,R,classroom,0,scaled,k5_small_flashdrive_R.png,small,m,1,1357,8,3,k5_small_flashdrive_R.png,311766,481006,28,Woman
9,469999,OSSe5,v2,jsons/s2.json,1366,768,1366,768,9-2-2023,14-53-44,2,9,c11,sponge,R,kitchen,0,misscaled,c11_large_sponge_R.png,large,m,1,1324,9,6,c11_large_sponge_R.png,311766,481006,28,Woman
10,469999,OSSe5,v2,jsons/s2.json,1366,768,1366,768,9-2-2023,14-53-44,2,10,c0,spoon,L,kitchen,0,scaled,c0_small_spoon_L.png,small,c,1,3223,10,4,c0_small_spoon_L.png,311766,481006,28,Woman
11,469999,OSSe5,v2,jsons/s2.json,1366,768,1366,768,9-2-2023,14-53-44,2,11,c5,flashdrive,R,classroom,1,misscaled,c5_large_flashdrive_R.png,large,c,0,391,11,7,c5_large_flashdrive_R.png,311766,481006,28,Woman
12,469999,OSSe5,v2,jsons/s2.json,1366,768,1366,768,9-2-2023,14-53-44,2,12,k2,binderclip,R,classroom,0,scaled,k2_small_binderclip_R.png,small,m,1,1113,12,4,k2_small_binderclip_R.png,311766,481006,28,Woman
13,469999,OSSe5,v2,jsons/s2.json,1366,768,1366,768,9-2-2023,14-53-44,2,13,c8,notebook,R,classroom,1,scaled,c8_large_notebook_R.png,large,m,1,1231,13,4,c8_large_notebook_R.png,311766,481006,28,Woman
14,469999,OSSe5,v2,jsons/s2.json,1366,768,1366,768,9-2-2023,14-53-44,2,14,c9,pot,L,kitchen,0,scaled,c9_large_pot_L.png,large,c,1,1206,14,4,c9_large_pot_L.png,311766,481006,28,Woman
15,469999,OSSe5,v2,jsons/s2.json,1366,768,1366,768,9-2-2023,14-53-44,2,15,c4,eraser,L,classroom,1,misscaled,c4_large_eraser_L.png,large,c,1,1172,15,7,c4_large_eraser_L.png,311766,481006,28,Woman
16,469999,OSSe5,v2,jsons/s2.json,1366,768,1366,768,9-2-2023,14-53-44,2,16,k4,eraser,R,classroom,0,scaled,k4_small_eraser_R.png,small,m,1,1472,16,7,k4_small_eraser_R.png,311766,481006,28,Woman
17,469999,OSSe5,v2,jsons/s2.json,1366,768,1366,768,9-2-2023,14-53-44,2,17,c10,saltshaker,R,kitchen,0,misscaled,c10_large_saltshaker_R.png,large,m,1,1268,17,7,c10_large_saltshaker_R.png,311766,481006,28,Woman
18,469999,OSSe5,v2,jsons/s2.json,1366,768,1366,768,9-2-2023,14-53-44,2,18,k1,toaster,L,kitchen,1,scaled,k1_large_toaster_L.png,large,c,1,1039,18,4,k1_large_toaster_L.png,311766,481006,28,Woman
19,469999,OSSe5,v2,jsons/s2.json,1366,768,1366,768,9-2-2023,14-53-44,2,19,c2,binderclip,L,classroom,1,misscaled,c2_large_binderclip_L.png,large,c,1,1548,19,7,c2_large_binderclip_L.png,311766,481006,28,Woman
20,469999,OSSe5,v2,jsons/s2.json,1366,768,1366,768,9-2-2023,14-53-44,2,20,k3,clipboard,L,classroom,0,misscaled,k3_small_clipboard_L.png,small,c,1,1273,20,4,k3_small_clipboard_L.png,311766,481006,28,Woman
21,469999,OSSe5,v2,jsons/s2.json,1366,768,1366,768,9-2-2023,14-53-44,2,21,k6,kettle,R,kitchen,1,misscaled,k6_small_kettle_R.png,small,m,1,1846,21,2,k6_small_kettle_R.png,311766,481006,28,Woman
22,469999,OSSe5,v2,jsons/s2.json,1366,768,1366,768,9-2-2023,14-53-44,2,22,k10,saltshaker,R,kitchen,1,scaled,k10_small_saltshaker_R.png,small,m,1,1097,22,4,k10_small_saltshaker_R.png,311766,481006,28,Woman
23,469999,OSSe5,v2,jsons/s2.json,1366,768,1366,768,9-2-2023,14-53-44,2,23,c7,laptop,L,classroom,1,scaled,c7_large_laptop_L.png,large,c,1,3882,23,5,c7_large_laptop_L.png,311766,481006,28,Woman
