,subjID,experimentName,versionName,sequenceName,windowWidth,windowHeight,screenWidth,screenHeight,startDate,startTime,pracTries,trialNum,scene,object,side,objectCategory,objSceneSemCong,scale,image,presentationSize,keyPress,accuracy,RT,ratingTrialNum,rating,thisRatingTrialFile,experimentTime,totalTime,age,gender
0,553163,OSSe5,v2,jsons/s20.json,1364,625,1364,768,9-2-2023,12-19-11,1,0,k2,notebook,R,classroom,0,misscaled,k2_small_notebook_R.png,small,m,1,4085,0,2,k2_small_notebook_R.png,371807,440789,33,Woman
1,553163,OSSe5,v2,jsons/s20.json,1364,625,1364,768,9-2-2023,12-19-11,1,1,c10,eraser,R,classroom,1,scaled,c10_small_eraser_R.png,small,m,1,3228,1,4,c10_small_eraser_R.png,371807,440789,33,Woman
2,553163,OSSe5,v2,jsons/s20.json,1364,625,1364,768,9-2-2023,12-19-11,1,2,k6,spoon,L,kitchen,1,scaled,k6_small_spoon_L.png,small,c,1,8740,2,4,k6_small_spoon_L.png,371807,440789,33,Woman
3,553163,OSSe5,v2,jsons/s20.json,1364,625,1364,768,9-2-2023,12-19-11,1,3,k10,eraser,R,classroom,0,misscaled,k10_large_eraser_R.png,large,m,1,4372,3,4,k10_large_eraser_R.png,371807,440789,33,Woman
4,553163,OSSe5,v2,jsons/s20.json,1364,625,1364,768,9-2-2023,12-19-11,1,4,c7,toaster,L,kitchen,0,scaled,c7_large_toaster_L.png,large,c,1,2347,4,4,c7_large_toaster_L.png,371807,440789,33,Woman
5,553163,OSSe5,v2,jsons/s20.json,1364,625,1364,768,9-2-2023,12-19-11,1,5,k7,toaster,L,kitchen,1,misscaled,k7_small_toaster_L.png,small,c,1,2860,5,2,k7_small_toaster_L.png,371807,440789,33,Woman
6,553163,OSSe5,v2,jsons/s20.json,1364,625,1364,768,9-2-2023,12-19-11,1,6,c2,notebook,L,classroom,1,scaled,c2_large_notebook_L.png,large,c,1,1941,6,5,c2_large_notebook_L.png,371807,440789,33,Woman
7,553163,OSSe5,v2,jsons/s20.json,1364,625,1364,768,9-2-2023,12-19-11,1,7,c0,kettle,L,kitchen,0,scaled,c0_large_kettle_L.png,large,c,1,3893,7,6,c0_large_kettle_L.png,371807,440789,33,Woman
8,553163,OSSe5,v2,jsons/s20.json,1364,625,1364,768,9-2-2023,12-19-11,1,8,c6,spoon,R,kitchen,0,misscaled,c6_large_spoon_R.png,large,m,1,2853,8,5,c6_large_spoon_R.png,371807,440789,33,Woman
9,553163,OSSe5,v2,jsons/s20.json,1364,625,1364,768,9-2-2023,12-19-11,1,9,c4,saltshaker,L,kitchen,0,misscaled,c4_large_saltshaker_L.png,large,c,1,2004,9,5,c4_large_saltshaker_L.png,371807,440789,33,Woman
10,553163,OSSe5,v2,jsons/s20.json,1364,625,1364,768,9-2-2023,12-19-11,1,10,c5,sponge,R,kitchen,0,misscaled,c5_large_sponge_R.png,large,m,1,2868,10,5,c5_large_sponge_R.png,371807,440789,33,Woman
11,553163,OSSe5,v2,jsons/s20.json,1364,625,1364,768,9-2-2023,12-19-11,1,11,k1,laptop,R,classroom,0,misscaled,k1_small_laptop_R.png,small,m,1,2165,11,2,k1_small_laptop_R.png,371807,440789,33,Woman
12,553163,OSSe5,v2,jsons/s20.json,1364,625,1364,768,9-2-2023,12-19-11,1,12,c11,flashdrive,R,classroom,1,scaled,c11_small_flashdrive_R.png,small,m,1,4389,12,4,c11_small_flashdrive_R.png,371807,440789,33,Woman
13,553163,OSSe5,v2,jsons/s20.json,1364,625,1364,768,9-2-2023,12-19-11,1,13,k8,binderclip,L,classroom,0,misscaled,k8_large_binderclip_L.png,large,c,1,3278,13,5,k8_large_binderclip_L.png,371807,440789,33,Woman
14,553163,OSSe5,v2,jsons/s20.json,1364,625,1364,768,9-2-2023,12-19-11,1,14,k11,flashdrive,L,classroom,0,misscaled,k11_large_flashdrive_L.png,large,c,1,3159,14,6,k11_large_flashdrive_L.png,371807,440789,33,Woman
15,553163,OSSe5,v2,jsons/s20.json,1364,625,1364,768,9-2-2023,12-19-11,1,15,c1,laptop,L,classroom,1,scaled,c1_large_laptop_L.png,large,c,1,2388,15,4,c1_large_laptop_L.png,371807,440789,33,Woman
16,553163,OSSe5,v2,jsons/s20.json,1364,625,1364,768,9-2-2023,12-19-11,1,16,c9,clipboard,L,classroom,1,misscaled,c9_small_clipboard_L.png,small,c,1,5944,16,3,c9_small_clipboard_L.png,371807,440789,33,Woman
17,553163,OSSe5,v2,jsons/s20.json,1364,625,1364,768,9-2-2023,12-19-11,1,17,k3,pot,R,kitchen,1,misscaled,k3_small_pot_R.png,small,m,1,4943,17,2,k3_small_pot_R.png,371807,440789,33,Woman
18,553163,OSSe5,v2,jsons/s20.json,1364,625,1364,768,9-2-2023,12-19-11,1,18,c8,binderclip,R,classroom,1,scaled,c8_small_binderclip_R.png,small,m,1,4845,18,4,c8_small_binderclip_R.png,371807,440789,33,Woman
19,553163,OSSe5,v2,jsons/s20.json,1364,625,1364,768,9-2-2023,12-19-11,1,19,k0,kettle,L,kitchen,1,misscaled,k0_small_kettle_L.png,small,c,1,2975,19,4,k0_small_kettle_L.png,371807,440789,33,Woman
20,553163,OSSe5,v2,jsons/s20.json,1364,625,1364,768,9-2-2023,12-19-11,1,20,k5,sponge,R,kitchen,1,scaled,k5_small_sponge_R.png,small,m,1,2743,20,4,k5_small_sponge_R.png,371807,440789,33,Woman
21,553163,OSSe5,v2,jsons/s20.json,1364,625,1364,768,9-2-2023,12-19-11,1,21,k9,clipboard,R,classroom,0,scaled,k9_large_clipboard_R.png,large,m,1,3071,21,6,k9_large_clipboard_R.png,371807,440789,33,Woman
22,553163,OSSe5,v2,jsons/s20.json,1364,625,1364,768,9-2-2023,12-19-11,1,22,c3,pot,L,kitchen,0,scaled,c3_large_pot_L.png,large,c,1,2526,22,4,c3_large_pot_L.png,371807,440789,33,Woman
23,553163,OSSe5,v2,jsons/s20.json,1364,625,1364,768,9-2-2023,12-19-11,1,23,k4,saltshaker,R,kitchen,1,scaled,k4_small_saltshaker_R.png,small,c,0,3055,23,4,k4_small_saltshaker_R.png,371807,440789,33,Woman
