,subjID,experimentName,versionName,sequenceName,windowWidth,windowHeight,screenWidth,screenHeight,startDate,startTime,pracTries,trialNum,scene,object,side,objectCategory,objSceneSemCong,scale,image,presentationSize,keyPress,accuracy,RT,ratingTrialNum,rating,thisRatingTrialFile,experimentTime,totalTime,age,gender
0,599095,OSSe5,v2,jsons/s21.json,1366,625,1366,768,9-3-2023,11-20-28,2,0,k11,eraser,L,classroom,0,misscaled,k11_large_eraser_L.png,large,m,0,1096,0,1,k11_large_eraser_L.png,264218,423917,25,Man
1,599095,OSSe5,v2,jsons/s21.json,1366,625,1366,768,9-3-2023,11-20-28,2,1,c7,spoon,R,kitchen,0,misscaled,c7_large_spoon_R.png,large,m,1,840,1,4,c7_large_spoon_R.png,264218,423917,25,Man
2,599095,OSSe5,v2,jsons/s21.json,1366,625,1366,768,9-3-2023,11-20-28,2,2,c0,flashdrive,R,classroom,1,misscaled,c0_large_flashdrive_R.png,large,m,1,1080,2,4,c0_large_flashdrive_R.png,264218,423917,25,Man
3,599095,OSSe5,v2,jsons/s21.json,1366,625,1366,768,9-3-2023,11-20-28,2,3,c6,sponge,R,kitchen,0,misscaled,c6_large_sponge_R.png,large,m,1,1080,3,7,c6_large_sponge_R.png,264218,423917,25,Man
4,599095,OSSe5,v2,jsons/s21.json,1366,625,1366,768,9-3-2023,11-20-28,2,4,c8,toaster,L,kitchen,0,scaled,c8_large_toaster_L.png,large,m,0,1056,4,7,c8_large_toaster_L.png,264218,423917,25,Man
5,599095,OSSe5,v2,jsons/s21.json,1366,625,1366,768,9-3-2023,11-20-28,2,5,k4,pot,L,kitchen,1,misscaled,k4_small_pot_L.png,small,c,1,1208,5,5,k4_small_pot_L.png,264218,423917,25,Man
6,599095,OSSe5,v2,jsons/s21.json,1366,625,1366,768,9-3-2023,11-20-28,2,6,k1,kettle,L,kitchen,1,misscaled,k1_small_kettle_L.png,small,c,1,1167,6,2,k1_small_kettle_L.png,264218,423917,25,Man
7,599095,OSSe5,v2,jsons/s21.json,1366,625,1366,768,9-3-2023,11-20-28,2,7,c5,saltshaker,R,kitchen,0,misscaled,c5_large_saltshaker_R.png,large,c,0,735,7,3,c5_large_saltshaker_R.png,264218,423917,25,Man
8,599095,OSSe5,v2,jsons/s21.json,1366,625,1366,768,9-3-2023,11-20-28,2,8,k2,laptop,L,classroom,0,misscaled,k2_small_laptop_L.png,small,m,0,671,8,3,k2_small_laptop_L.png,264218,423917,25,Man
9,599095,OSSe5,v2,jsons/s21.json,1366,625,1366,768,9-3-2023,11-20-28,2,9,c1,kettle,R,kitchen,0,scaled,c1_large_kettle_R.png,large,m,1,1327,9,4,c1_large_kettle_R.png,264218,423917,25,Man
10,599095,OSSe5,v2,jsons/s21.json,1366,625,1366,768,9-3-2023,11-20-28,2,10,c9,binderclip,R,classroom,1,scaled,c9_small_binderclip_R.png,small,m,1,1118,10,5,c9_small_binderclip_R.png,264218,423917,25,Man
11,599095,OSSe5,v2,jsons/s21.json,1366,625,1366,768,9-3-2023,11-20-28,2,11,k3,notebook,L,classroom,0,misscaled,k3_small_notebook_L.png,small,m,0,1273,11,5,k3_small_notebook_L.png,264218,423917,25,Man
12,599095,OSSe5,v2,jsons/s21.json,1366,625,1366,768,9-3-2023,11-20-28,2,12,c10,clipboard,R,classroom,1,misscaled,c10_small_clipboard_R.png,small,c,0,1150,12,4,c10_small_clipboard_R.png,264218,423917,25,Man
13,599095,OSSe5,v2,jsons/s21.json,1366,625,1366,768,9-3-2023,11-20-28,2,13,k9,binderclip,R,classroom,0,misscaled,k9_large_binderclip_R.png,large,m,1,759,13,3,k9_large_binderclip_R.png,264218,423917,25,Man
14,599095,OSSe5,v2,jsons/s21.json,1366,625,1366,768,9-3-2023,11-20-28,2,14,k8,toaster,R,kitchen,1,misscaled,k8_small_toaster_R.png,small,c,0,1335,14,4,k8_small_toaster_R.png,264218,423917,25,Man
15,599095,OSSe5,v2,jsons/s21.json,1366,625,1366,768,9-3-2023,11-20-28,2,15,c11,eraser,L,classroom,1,scaled,c11_small_eraser_L.png,small,c,1,773,15,5,c11_small_eraser_L.png,264218,423917,25,Man
16,599095,OSSe5,v2,jsons/s21.json,1366,625,1366,768,9-3-2023,11-20-28,2,16,k7,spoon,R,kitchen,1,scaled,k7_small_spoon_R.png,small,c,0,981,16,2,k7_small_spoon_R.png,264218,423917,25,Man
17,599095,OSSe5,v2,jsons/s21.json,1366,625,1366,768,9-3-2023,11-20-28,2,17,c3,notebook,L,classroom,1,scaled,c3_large_notebook_L.png,large,c,1,766,17,3,c3_large_notebook_L.png,264218,423917,25,Man
18,599095,OSSe5,v2,jsons/s21.json,1366,625,1366,768,9-3-2023,11-20-28,2,18,k5,saltshaker,R,kitchen,1,scaled,k5_small_saltshaker_R.png,small,m,1,1534,18,4,k5_small_saltshaker_R.png,264218,423917,25,Man
19,599095,OSSe5,v2,jsons/s21.json,1366,625,1366,768,9-3-2023,11-20-28,2,19,c2,laptop,R,classroom,1,scaled,c2_large_laptop_R.png,large,m,1,1174,19,5,c2_large_laptop_R.png,264218,423917,25,Man
20,599095,OSSe5,v2,jsons/s21.json,1366,625,1366,768,9-3-2023,11-20-28,2,20,k10,clipboard,L,classroom,0,scaled,k10_large_clipboard_L.png,large,c,1,677,20,6,k10_large_clipboard_L.png,264218,423917,25,Man
21,599095,OSSe5,v2,jsons/s21.json,1366,625,1366,768,9-3-2023,11-20-28,2,21,k0,flashdrive,L,classroom,0,scaled,k0_small_flashdrive_L.png,small,m,0,621,21,1,k0_small_flashdrive_L.png,264218,423917,25,Man
22,599095,OSSe5,v2,jsons/s21.json,1366,625,1366,768,9-3-2023,11-20-28,2,22,c4,pot,L,kitchen,0,scaled,c4_large_pot_L.png,large,m,0,1677,22,3,c4_large_pot_L.png,264218,423917,25,Man
23,599095,OSSe5,v2,jsons/s21.json,1366,625,1366,768,9-3-2023,11-20-28,2,23,k6,sponge,L,kitchen,1,scaled,k6_small_sponge_L.png,small,m,0,1036,23,3,k6_small_sponge_L.png,264218,423917,25,Man
