,subjID,experimentName,versionName,sequenceName,windowWidth,windowHeight,screenWidth,screenHeight,startDate,startTime,pracTries,trialNum,scene,object,side,objectCategory,objSceneSemCong,scale,image,presentationSize,keyPress,accuracy,RT,ratingTrialNum,rating,thisRatingTrialFile,experimentTime,totalTime,age,gender
0,635647,OSSe5,v2,jsons/s16.json,1366,619,1366,768,9-2-2023,8-10-10,1,0,c5,clipboard,L,classroom,1,misscaled,c5_small_clipboard_L.png,small,c,1,1383,0,1,c5_small_clipboard_L.png,250615,312457,44,Man
1,635647,OSSe5,v2,jsons/s16.json,1366,619,1366,768,9-2-2023,8-10-10,1,1,c10,notebook,L,classroom,1,misscaled,c10_small_notebook_L.png,small,c,1,1960,1,1,c10_small_notebook_L.png,250615,312457,44,Man
2,635647,OSSe5,v2,jsons/s16.json,1366,619,1366,768,9-2-2023,8-10-10,1,2,c8,kettle,R,kitchen,0,misscaled,c8_small_kettle_R.png,small,m,1,1922,2,1,c8_small_kettle_R.png,250615,312457,44,Man
3,635647,OSSe5,v2,jsons/s16.json,1366,619,1366,768,9-2-2023,8-10-10,1,3,k1,sponge,L,kitchen,1,scaled,k1_small_sponge_L.png,small,c,1,1288,3,1,k1_small_sponge_L.png,250615,312457,44,Man
4,635647,OSSe5,v2,jsons/s16.json,1366,619,1366,768,9-2-2023,8-10-10,1,4,c4,binderclip,R,classroom,1,scaled,c4_small_binderclip_R.png,small,m,1,2186,4,1,c4_small_binderclip_R.png,250615,312457,44,Man
5,635647,OSSe5,v2,jsons/s16.json,1366,619,1366,768,9-2-2023,8-10-10,1,5,k6,eraser,L,classroom,0,misscaled,k6_large_eraser_L.png,large,c,1,3228,5,4,k6_large_eraser_L.png,250615,312457,44,Man
6,635647,OSSe5,v2,jsons/s16.json,1366,619,1366,768,9-2-2023,8-10-10,1,6,k2,spoon,L,kitchen,1,scaled,k2_small_spoon_L.png,small,c,1,1795,6,4,k2_small_spoon_L.png,250615,312457,44,Man
7,635647,OSSe5,v2,jsons/s16.json,1366,619,1366,768,9-2-2023,8-10-10,1,7,k3,toaster,L,kitchen,1,misscaled,k3_small_toaster_L.png,small,c,1,1572,7,2,k3_small_toaster_L.png,250615,312457,44,Man
8,635647,OSSe5,v2,jsons/s16.json,1366,619,1366,768,9-2-2023,8-10-10,1,8,k0,saltshaker,L,kitchen,1,scaled,k0_small_saltshaker_L.png,small,c,1,3044,8,1,k0_small_saltshaker_L.png,250615,312457,44,Man
9,635647,OSSe5,v2,jsons/s16.json,1366,619,1366,768,9-2-2023,8-10-10,1,9,k5,clipboard,R,classroom,0,scaled,k5_large_clipboard_R.png,large,m,1,1978,9,5,k5_large_clipboard_R.png,250615,312457,44,Man
10,635647,OSSe5,v2,jsons/s16.json,1366,619,1366,768,9-2-2023,8-10-10,1,10,c9,laptop,L,classroom,1,misscaled,c9_small_laptop_L.png,small,c,1,1485,10,2,c9_small_laptop_L.png,250615,312457,44,Man
11,635647,OSSe5,v2,jsons/s16.json,1366,619,1366,768,9-2-2023,8-10-10,1,11,k8,kettle,R,kitchen,1,scaled,k8_large_kettle_R.png,large,m,1,1474,11,3,k8_large_kettle_R.png,250615,312457,44,Man
12,635647,OSSe5,v2,jsons/s16.json,1366,619,1366,768,9-2-2023,8-10-10,1,12,k7,flashdrive,R,classroom,0,misscaled,k7_large_flashdrive_R.png,large,m,1,1466,12,6,k7_large_flashdrive_R.png,250615,312457,44,Man
13,635647,OSSe5,v2,jsons/s16.json,1366,619,1366,768,9-2-2023,8-10-10,1,13,k9,laptop,R,classroom,0,scaled,k9_large_laptop_R.png,large,m,1,1678,13,6,k9_large_laptop_R.png,250615,312457,44,Man
14,635647,OSSe5,v2,jsons/s16.json,1366,619,1366,768,9-2-2023,8-10-10,1,14,c2,spoon,R,kitchen,0,misscaled,c2_large_spoon_R.png,large,m,1,1698,14,5,c2_large_spoon_R.png,250615,312457,44,Man
15,635647,OSSe5,v2,jsons/s16.json,1366,619,1366,768,9-2-2023,8-10-10,1,15,c6,eraser,L,classroom,1,scaled,c6_small_eraser_L.png,small,c,1,1445,15,1,c6_small_eraser_L.png,250615,312457,44,Man
16,635647,OSSe5,v2,jsons/s16.json,1366,619,1366,768,9-2-2023,8-10-10,1,16,k11,pot,R,kitchen,1,scaled,k11_large_pot_R.png,large,m,1,1588,16,5,k11_large_pot_R.png,250615,312457,44,Man
17,635647,OSSe5,v2,jsons/s16.json,1366,619,1366,768,9-2-2023,8-10-10,1,17,c7,flashdrive,R,classroom,1,scaled,c7_small_flashdrive_R.png,small,m,1,1360,17,2,c7_small_flashdrive_R.png,250615,312457,44,Man
18,635647,OSSe5,v2,jsons/s16.json,1366,619,1366,768,9-2-2023,8-10-10,1,18,c3,toaster,R,kitchen,0,scaled,c3_large_toaster_R.png,large,m,1,1282,18,5,c3_large_toaster_R.png,250615,312457,44,Man
19,635647,OSSe5,v2,jsons/s16.json,1366,619,1366,768,9-2-2023,8-10-10,1,19,c0,saltshaker,L,kitchen,0,misscaled,c0_large_saltshaker_L.png,large,c,1,1172,19,4,c0_large_saltshaker_L.png,250615,312457,44,Man
20,635647,OSSe5,v2,jsons/s16.json,1366,619,1366,768,9-2-2023,8-10-10,1,20,k4,binderclip,R,classroom,0,misscaled,k4_large_binderclip_R.png,large,m,1,1653,20,7,k4_large_binderclip_R.png,250615,312457,44,Man
21,635647,OSSe5,v2,jsons/s16.json,1366,619,1366,768,9-2-2023,8-10-10,1,21,c1,sponge,L,kitchen,0,misscaled,c1_large_sponge_L.png,large,c,1,1489,21,4,c1_large_sponge_L.png,250615,312457,44,Man
22,635647,OSSe5,v2,jsons/s16.json,1366,619,1366,768,9-2-2023,8-10-10,1,22,k10,notebook,R,classroom,0,scaled,k10_large_notebook_R.png,large,m,1,1090,22,4,k10_large_notebook_R.png,250615,312457,44,Man
23,635647,OSSe5,v2,jsons/s16.json,1366,619,1366,768,9-2-2023,8-10-10,1,23,c11,pot,L,kitchen,0,misscaled,c11_small_pot_L.png,small,c,1,1388,23,1,c11_small_pot_L.png,250615,312457,44,Man
