,subjID,experimentName,versionName,sequenceName,windowWidth,windowHeight,screenWidth,screenHeight,startDate,startTime,pracTries,trialNum,scene,object,side,objectCategory,objSceneSemCong,scale,image,presentationSize,keyPress,accuracy,RT,ratingTrialNum,rating,thisRatingTrialFile,experimentTime,totalTime,age,gender
0,654841,OSSe5,v2,jsons/s13.json,1600,751,1600,900,9-5-2023,11-21-19,1,0,k10,sponge,R,kitchen,1,misscaled,k10_large_sponge_R.png,large,m,1,1489,0,5,k10_large_sponge_R.png,791979,1018408,24,Man
1,654841,OSSe5,v2,jsons/s13.json,1600,751,1600,900,9-5-2023,11-21-19,1,1,c10,sponge,L,kitchen,0,scaled,c10_small_sponge_L.png,small,c,1,1286,1,3,c10_small_sponge_L.png,791979,1018408,24,Man
2,654841,OSSe5,v2,jsons/s13.json,1600,751,1600,900,9-5-2023,11-21-19,1,2,c0,toaster,L,kitchen,0,scaled,c0_large_toaster_L.png,large,c,1,2166,2,5,c0_large_toaster_L.png,791979,1018408,24,Man
3,654841,OSSe5,v2,jsons/s13.json,1600,751,1600,900,9-5-2023,11-21-19,1,3,c5,kettle,R,kitchen,0,misscaled,c5_small_kettle_R.png,small,m,1,2610,3,2,c5_small_kettle_R.png,791979,1018408,24,Man
4,654841,OSSe5,v2,jsons/s13.json,1600,751,1600,900,9-5-2023,11-21-19,1,4,k0,toaster,R,kitchen,1,misscaled,k0_small_toaster_R.png,small,m,1,1984,4,1,k0_small_toaster_R.png,791979,1018408,24,Man
5,654841,OSSe5,v2,jsons/s13.json,1600,751,1600,900,9-5-2023,11-21-19,1,5,k5,kettle,L,kitchen,1,scaled,k5_large_kettle_L.png,large,c,1,1671,5,5,k5_large_kettle_L.png,791979,1018408,24,Man
6,654841,OSSe5,v2,jsons/s13.json,1600,751,1600,900,9-5-2023,11-21-19,1,6,c6,laptop,R,classroom,1,misscaled,c6_small_laptop_R.png,small,m,1,2908,6,2,c6_small_laptop_R.png,791979,1018408,24,Man
7,654841,OSSe5,v2,jsons/s13.json,1600,751,1600,900,9-5-2023,11-21-19,1,7,k6,laptop,L,classroom,0,scaled,k6_large_laptop_L.png,large,c,1,938,7,4,k6_large_laptop_L.png,791979,1018408,24,Man
8,654841,OSSe5,v2,jsons/s13.json,1600,751,1600,900,9-5-2023,11-21-19,1,8,k9,saltshaker,L,kitchen,1,misscaled,k9_large_saltshaker_L.png,large,c,1,1784,8,6,k9_large_saltshaker_L.png,791979,1018408,24,Man
9,654841,OSSe5,v2,jsons/s13.json,1600,751,1600,900,9-5-2023,11-21-19,1,9,k1,binderclip,R,classroom,0,misscaled,k1_large_binderclip_R.png,large,m,1,1103,9,6,k1_large_binderclip_R.png,791979,1018408,24,Man
10,654841,OSSe5,v2,jsons/s13.json,1600,751,1600,900,9-5-2023,11-21-19,1,10,c3,eraser,R,classroom,1,scaled,c3_small_eraser_R.png,small,m,1,3346,10,3,c3_small_eraser_R.png,791979,1018408,24,Man
11,654841,OSSe5,v2,jsons/s13.json,1600,751,1600,900,9-5-2023,11-21-19,1,11,c1,binderclip,R,classroom,1,scaled,c1_small_binderclip_R.png,small,m,1,1170,11,3,c1_small_binderclip_R.png,791979,1018408,24,Man
12,654841,OSSe5,v2,jsons/s13.json,1600,751,1600,900,9-5-2023,11-21-19,1,12,c4,flashdrive,R,classroom,1,scaled,c4_small_flashdrive_R.png,small,m,1,2997,12,2,c4_small_flashdrive_R.png,791979,1018408,24,Man
13,654841,OSSe5,v2,jsons/s13.json,1600,751,1600,900,9-5-2023,11-21-19,1,13,c11,spoon,R,kitchen,0,scaled,c11_small_spoon_R.png,small,m,1,3682,13,3,c11_small_spoon_R.png,791979,1018408,24,Man
14,654841,OSSe5,v2,jsons/s13.json,1600,751,1600,900,9-5-2023,11-21-19,1,14,c2,clipboard,R,classroom,1,misscaled,c2_small_clipboard_R.png,small,m,1,1424,14,3,c2_small_clipboard_R.png,791979,1018408,24,Man
15,654841,OSSe5,v2,jsons/s13.json,1600,751,1600,900,9-5-2023,11-21-19,1,15,k2,clipboard,R,classroom,0,scaled,k2_large_clipboard_R.png,large,m,1,2057,15,4,k2_large_clipboard_R.png,791979,1018408,24,Man
16,654841,OSSe5,v2,jsons/s13.json,1600,751,1600,900,9-5-2023,11-21-19,1,16,c8,pot,R,kitchen,0,misscaled,c8_small_pot_R.png,small,m,1,2089,16,3,c8_small_pot_R.png,791979,1018408,24,Man
17,654841,OSSe5,v2,jsons/s13.json,1600,751,1600,900,9-5-2023,11-21-19,1,17,k7,notebook,L,classroom,0,scaled,k7_large_notebook_L.png,large,c,1,1243,17,4,k7_large_notebook_L.png,791979,1018408,24,Man
18,654841,OSSe5,v2,jsons/s13.json,1600,751,1600,900,9-5-2023,11-21-19,1,18,c7,notebook,L,classroom,1,misscaled,c7_small_notebook_L.png,small,c,1,2383,18,3,c7_small_notebook_L.png,791979,1018408,24,Man
19,654841,OSSe5,v2,jsons/s13.json,1600,751,1600,900,9-5-2023,11-21-19,1,19,c9,saltshaker,L,kitchen,0,scaled,c9_small_saltshaker_L.png,small,c,1,1360,19,2,c9_small_saltshaker_L.png,791979,1018408,24,Man
20,654841,OSSe5,v2,jsons/s13.json,1600,751,1600,900,9-5-2023,11-21-19,1,20,k4,flashdrive,L,classroom,0,misscaled,k4_large_flashdrive_L.png,large,m,0,2816,20,6,k4_large_flashdrive_L.png,791979,1018408,24,Man
21,654841,OSSe5,v2,jsons/s13.json,1600,751,1600,900,9-5-2023,11-21-19,1,21,k3,eraser,L,classroom,0,misscaled,k3_large_eraser_L.png,large,c,1,993,21,5,k3_large_eraser_L.png,791979,1018408,24,Man
22,654841,OSSe5,v2,jsons/s13.json,1600,751,1600,900,9-5-2023,11-21-19,1,22,k8,pot,L,kitchen,1,scaled,k8_large_pot_L.png,large,c,1,1842,22,5,k8_large_pot_L.png,791979,1018408,24,Man
23,654841,OSSe5,v2,jsons/s13.json,1600,751,1600,900,9-5-2023,11-21-19,1,23,k11,spoon,L,kitchen,1,misscaled,k11_large_spoon_L.png,large,c,1,1234,23,6,k11_large_spoon_L.png,791979,1018408,24,Man
