,subjID,experimentName,versionName,sequenceName,windowWidth,windowHeight,screenWidth,screenHeight,startDate,startTime,pracTries,trialNum,scene,object,side,objectCategory,objSceneSemCong,scale,image,presentationSize,keyPress,accuracy,RT,ratingTrialNum,rating,thisRatingTrialFile,experimentTime,totalTime,age,gender
0,782361,OSSe5,v2,jsons/s11.json,1226,563,1366,768,9-2-2023,11-7-45,1,0,k9,spoon,R,kitchen,1,misscaled,k9_large_spoon_R.png,large,c,0,1140,0,7,k9_large_spoon_R.png,273384,324062,25,Man
1,782361,OSSe5,v2,jsons/s11.json,1226,563,1366,768,9-2-2023,11-7-45,1,1,c3,kettle,L,kitchen,0,misscaled,c3_small_kettle_L.png,small,m,0,202,1,1,c3_small_kettle_L.png,273384,324062,25,Man
2,782361,OSSe5,v2,jsons/s11.json,1226,563,1366,768,9-2-2023,11-7-45,1,2,c2,flashdrive,L,classroom,1,scaled,c2_small_flashdrive_L.png,small,m,0,1291,2,7,c2_small_flashdrive_L.png,273384,324062,25,Man
3,782361,OSSe5,v2,jsons/s11.json,1226,563,1366,768,9-2-2023,11-7-45,1,3,k6,pot,R,kitchen,1,scaled,k6_large_pot_R.png,large,c,0,1210,3,5,k6_large_pot_R.png,273384,324062,25,Man
4,782361,OSSe5,v2,jsons/s11.json,1226,563,1366,768,9-2-2023,11-7-45,1,4,k7,saltshaker,R,kitchen,1,misscaled,k7_large_saltshaker_R.png,large,m,1,2818,4,6,k7_large_saltshaker_R.png,273384,324062,25,Man
5,782361,OSSe5,v2,jsons/s11.json,1226,563,1366,768,9-2-2023,11-7-45,1,5,c9,spoon,L,kitchen,0,scaled,c9_small_spoon_L.png,small,m,0,1419,5,5,c9_small_spoon_L.png,273384,324062,25,Man
6,782361,OSSe5,v2,jsons/s11.json,1226,563,1366,768,9-2-2023,11-7-45,1,6,c4,laptop,L,classroom,1,misscaled,c4_small_laptop_L.png,small,c,1,2410,6,1,c4_small_laptop_L.png,273384,324062,25,Man
7,782361,OSSe5,v2,jsons/s11.json,1226,563,1366,768,9-2-2023,11-7-45,1,7,c8,sponge,R,kitchen,0,scaled,c8_small_sponge_R.png,small,m,1,1602,7,5,c8_small_sponge_R.png,273384,324062,25,Man
8,782361,OSSe5,v2,jsons/s11.json,1226,563,1366,768,9-2-2023,11-7-45,1,8,k5,notebook,R,classroom,0,scaled,k5_large_notebook_R.png,large,m,1,1067,8,6,k5_large_notebook_R.png,273384,324062,25,Man
9,782361,OSSe5,v2,jsons/s11.json,1226,563,1366,768,9-2-2023,11-7-45,1,9,k4,laptop,R,classroom,0,scaled,k4_large_laptop_R.png,large,m,1,1162,9,4,k4_large_laptop_R.png,273384,324062,25,Man
10,782361,OSSe5,v2,jsons/s11.json,1226,563,1366,768,9-2-2023,11-7-45,1,10,k1,eraser,R,classroom,0,misscaled,k1_large_eraser_R.png,large,m,1,1035,10,7,k1_large_eraser_R.png,273384,324062,25,Man
11,782361,OSSe5,v2,jsons/s11.json,1226,563,1366,768,9-2-2023,11-7-45,1,11,c6,pot,L,kitchen,0,misscaled,c6_small_pot_L.png,small,m,0,1202,11,1,c6_small_pot_L.png,273384,324062,25,Man
12,782361,OSSe5,v2,jsons/s11.json,1226,563,1366,768,9-2-2023,11-7-45,1,12,k2,flashdrive,L,classroom,0,misscaled,k2_large_flashdrive_L.png,large,m,0,1594,12,7,k2_large_flashdrive_L.png,273384,324062,25,Man
13,782361,OSSe5,v2,jsons/s11.json,1226,563,1366,768,9-2-2023,11-7-45,1,13,k11,binderclip,R,classroom,0,scaled,k11_small_binderclip_R.png,small,m,1,1498,13,1,k11_small_binderclip_R.png,273384,324062,25,Man
14,782361,OSSe5,v2,jsons/s11.json,1226,563,1366,768,9-2-2023,11-7-45,1,14,c1,eraser,L,classroom,1,scaled,c1_small_eraser_L.png,small,m,0,1203,14,6,c1_small_eraser_L.png,273384,324062,25,Man
15,782361,OSSe5,v2,jsons/s11.json,1226,563,1366,768,9-2-2023,11-7-45,1,15,c5,notebook,R,classroom,1,misscaled,c5_small_notebook_R.png,small,c,0,2666,15,1,c5_small_notebook_R.png,273384,324062,25,Man
16,782361,OSSe5,v2,jsons/s11.json,1226,563,1366,768,9-2-2023,11-7-45,1,16,k3,kettle,L,kitchen,1,scaled,k3_large_kettle_L.png,large,m,0,1450,16,4,k3_large_kettle_L.png,273384,324062,25,Man
17,782361,OSSe5,v2,jsons/s11.json,1226,563,1366,768,9-2-2023,11-7-45,1,17,c10,toaster,R,kitchen,0,misscaled,c10_small_toaster_R.png,small,m,1,1114,17,2,c10_small_toaster_R.png,273384,324062,25,Man
18,782361,OSSe5,v2,jsons/s11.json,1226,563,1366,768,9-2-2023,11-7-45,1,18,c7,saltshaker,R,kitchen,0,scaled,c7_small_saltshaker_R.png,small,m,1,1419,18,3,c7_small_saltshaker_R.png,273384,324062,25,Man
19,782361,OSSe5,v2,jsons/s11.json,1226,563,1366,768,9-2-2023,11-7-45,1,19,k8,sponge,R,kitchen,1,misscaled,k8_large_sponge_R.png,large,m,1,930,19,6,k8_large_sponge_R.png,273384,324062,25,Man
20,782361,OSSe5,v2,jsons/s11.json,1226,563,1366,768,9-2-2023,11-7-45,1,20,c11,binderclip,L,classroom,1,misscaled,c11_large_binderclip_L.png,large,m,0,1026,20,7,c11_large_binderclip_L.png,273384,324062,25,Man
21,782361,OSSe5,v2,jsons/s11.json,1226,563,1366,768,9-2-2023,11-7-45,1,21,k10,toaster,L,kitchen,1,scaled,k10_large_toaster_L.png,large,c,1,1650,21,4,k10_large_toaster_L.png,273384,324062,25,Man
22,782361,OSSe5,v2,jsons/s11.json,1226,563,1366,768,9-2-2023,11-7-45,1,22,k0,clipboard,L,classroom,0,scaled,k0_large_clipboard_L.png,large,c,1,1258,22,5,k0_large_clipboard_L.png,273384,324062,25,Man
23,782361,OSSe5,v2,jsons/s11.json,1226,563,1366,768,9-2-2023,11-7-45,1,23,c0,clipboard,L,classroom,1,misscaled,c0_small_clipboard_L.png,small,c,1,923,23,2,c0_small_clipboard_L.png,273384,324062,25,Man
