,subjID,experimentName,versionName,sequenceName,windowWidth,windowHeight,screenWidth,screenHeight,startDate,startTime,pracTries,trialNum,scene,object,side,objectCategory,objSceneSemCong,scale,image,presentationSize,keyPress,accuracy,RT,ratingTrialNum,rating,thisRatingTrialFile,experimentTime,totalTime,age,gender
0,850195,OSSe5,v2,jsons/s10.json,1366,651,1366,768,9-3-2023,14-28-45,18,0,k8,spoon,L,kitchen,1,misscaled,k8_large_spoon_L.png,large,c,1,2511,0,2,k8_large_spoon_L.png,408138,1872846,42,Woman
1,850195,OSSe5,v2,jsons/s10.json,1366,651,1366,768,9-3-2023,14-28-45,18,1,c2,kettle,L,kitchen,0,misscaled,c2_small_kettle_L.png,small,c,1,3800,1,1,c2_small_kettle_L.png,408138,1872846,42,Woman
2,850195,OSSe5,v2,jsons/s10.json,1366,651,1366,768,9-3-2023,14-28-45,18,2,k0,eraser,R,classroom,0,misscaled,k0_large_eraser_R.png,large,m,1,3354,2,4,k0_large_eraser_R.png,408138,1872846,42,Woman
3,850195,OSSe5,v2,jsons/s10.json,1366,651,1366,768,9-3-2023,14-28-45,18,3,k7,sponge,R,kitchen,1,misscaled,k7_large_sponge_R.png,large,m,1,3528,3,4,k7_large_sponge_R.png,408138,1872846,42,Woman
4,850195,OSSe5,v2,jsons/s10.json,1366,651,1366,768,9-3-2023,14-28-45,18,4,c1,flashdrive,R,classroom,1,scaled,c1_small_flashdrive_R.png,small,m,1,3244,4,5,c1_small_flashdrive_R.png,408138,1872846,42,Woman
5,850195,OSSe5,v2,jsons/s10.json,1366,651,1366,768,9-3-2023,14-28-45,18,5,c11,clipboard,L,classroom,1,scaled,c11_large_clipboard_L.png,large,c,1,5481,5,3,c11_large_clipboard_L.png,408138,1872846,42,Woman
6,850195,OSSe5,v2,jsons/s10.json,1366,651,1366,768,9-3-2023,14-28-45,18,6,c7,sponge,L,kitchen,0,scaled,c7_small_sponge_L.png,small,c,1,2762,6,2,c7_small_sponge_L.png,408138,1872846,42,Woman
7,850195,OSSe5,v2,jsons/s10.json,1366,651,1366,768,9-3-2023,14-28-45,18,7,c6,saltshaker,L,kitchen,0,scaled,c6_small_saltshaker_L.png,small,c,1,3954,7,2,c6_small_saltshaker_L.png,408138,1872846,42,Woman
8,850195,OSSe5,v2,jsons/s10.json,1366,651,1366,768,9-3-2023,14-28-45,18,8,c8,spoon,R,kitchen,0,scaled,c8_small_spoon_R.png,small,m,1,3962,8,4,c8_small_spoon_R.png,408138,1872846,42,Woman
9,850195,OSSe5,v2,jsons/s10.json,1366,651,1366,768,9-3-2023,14-28-45,18,9,c9,toaster,R,kitchen,0,misscaled,c9_small_toaster_R.png,small,m,1,2364,9,4,c9_small_toaster_R.png,408138,1872846,42,Woman
10,850195,OSSe5,v2,jsons/s10.json,1366,651,1366,768,9-3-2023,14-28-45,18,10,k11,clipboard,R,classroom,0,misscaled,k11_small_clipboard_R.png,small,m,1,10872,10,4,k11_small_clipboard_R.png,408138,1872846,42,Woman
11,850195,OSSe5,v2,jsons/s10.json,1366,651,1366,768,9-3-2023,14-28-45,18,11,c3,laptop,L,classroom,1,misscaled,c3_small_laptop_L.png,small,c,1,2538,11,3,c3_small_laptop_L.png,408138,1872846,42,Woman
12,850195,OSSe5,v2,jsons/s10.json,1366,651,1366,768,9-3-2023,14-28-45,18,12,c4,notebook,R,classroom,1,misscaled,c4_small_notebook_R.png,small,m,1,2625,12,4,c4_small_notebook_R.png,408138,1872846,42,Woman
13,850195,OSSe5,v2,jsons/s10.json,1366,651,1366,768,9-3-2023,14-28-45,18,13,c10,binderclip,L,classroom,1,misscaled,c10_large_binderclip_L.png,large,c,1,2259,13,3,c10_large_binderclip_L.png,408138,1872846,42,Woman
14,850195,OSSe5,v2,jsons/s10.json,1366,651,1366,768,9-3-2023,14-28-45,18,14,c5,pot,L,kitchen,0,misscaled,c5_small_pot_L.png,small,c,1,1962,14,2,c5_small_pot_L.png,408138,1872846,42,Woman
15,850195,OSSe5,v2,jsons/s10.json,1366,651,1366,768,9-3-2023,14-28-45,18,15,k5,pot,R,kitchen,1,scaled,k5_large_pot_R.png,large,m,1,1619,15,5,k5_large_pot_R.png,408138,1872846,42,Woman
16,850195,OSSe5,v2,jsons/s10.json,1366,651,1366,768,9-3-2023,14-28-45,18,16,k1,flashdrive,R,classroom,0,misscaled,k1_large_flashdrive_R.png,large,m,1,2530,16,5,k1_large_flashdrive_R.png,408138,1872846,42,Woman
17,850195,OSSe5,v2,jsons/s10.json,1366,651,1366,768,9-3-2023,14-28-45,18,17,k2,kettle,L,kitchen,1,scaled,k2_large_kettle_L.png,large,c,1,1867,17,2,k2_large_kettle_L.png,408138,1872846,42,Woman
18,850195,OSSe5,v2,jsons/s10.json,1366,651,1366,768,9-3-2023,14-28-45,18,18,k4,notebook,R,classroom,0,scaled,k4_large_notebook_R.png,large,m,1,3009,18,5,k4_large_notebook_R.png,408138,1872846,42,Woman
19,850195,OSSe5,v2,jsons/s10.json,1366,651,1366,768,9-3-2023,14-28-45,18,19,k3,laptop,R,classroom,0,scaled,k3_large_laptop_R.png,large,m,1,2194,19,6,k3_large_laptop_R.png,408138,1872846,42,Woman
20,850195,OSSe5,v2,jsons/s10.json,1366,651,1366,768,9-3-2023,14-28-45,18,20,k6,saltshaker,L,kitchen,1,misscaled,k6_large_saltshaker_L.png,large,c,1,3138,20,3,k6_large_saltshaker_L.png,408138,1872846,42,Woman
21,850195,OSSe5,v2,jsons/s10.json,1366,651,1366,768,9-3-2023,14-28-45,18,21,c0,eraser,R,classroom,1,scaled,c0_small_eraser_R.png,small,m,1,2642,21,4,c0_small_eraser_R.png,408138,1872846,42,Woman
22,850195,OSSe5,v2,jsons/s10.json,1366,651,1366,768,9-3-2023,14-28-45,18,22,k10,binderclip,L,classroom,0,scaled,k10_small_binderclip_L.png,small,c,1,3107,22,2,k10_small_binderclip_L.png,408138,1872846,42,Woman
23,850195,OSSe5,v2,jsons/s10.json,1366,651,1366,768,9-3-2023,14-28-45,18,23,k9,toaster,L,kitchen,1,scaled,k9_large_toaster_L.png,large,c,1,2338,23,3,k9_large_toaster_L.png,408138,1872846,42,Woman
