,subjID,experimentName,versionName,sequenceName,windowWidth,windowHeight,screenWidth,screenHeight,startDate,startTime,pracTries,trialNum,scene,object,side,objectCategory,objSceneSemCong,scale,image,presentationSize,keyPress,accuracy,RT,ratingTrialNum,rating,thisRatingTrialFile,experimentTime,totalTime,age,gender
0,857075,OSSe5,v2,jsons/s10.json,1364,619,1364,768,9-2-2023,8-11-47,1,0,k8,spoon,L,kitchen,1,misscaled,k8_large_spoon_L.png,large,c,1,3564,0,7,k8_large_spoon_L.png,434384,576173,47,Man
1,857075,OSSe5,v2,jsons/s10.json,1364,619,1364,768,9-2-2023,8-11-47,1,1,c2,kettle,R,kitchen,0,misscaled,c2_small_kettle_R.png,small,m,1,2503,1,1,c2_small_kettle_R.png,434384,576173,47,Man
2,857075,OSSe5,v2,jsons/s10.json,1364,619,1364,768,9-2-2023,8-11-47,1,2,k0,eraser,R,classroom,0,misscaled,k0_large_eraser_R.png,large,m,1,1346,2,7,k0_large_eraser_R.png,434384,576173,47,Man
3,857075,OSSe5,v2,jsons/s10.json,1364,619,1364,768,9-2-2023,8-11-47,1,3,k7,sponge,R,kitchen,1,misscaled,k7_large_sponge_R.png,large,m,1,2088,3,7,k7_large_sponge_R.png,434384,576173,47,Man
4,857075,OSSe5,v2,jsons/s10.json,1364,619,1364,768,9-2-2023,8-11-47,1,4,c1,flashdrive,R,classroom,1,scaled,c1_small_flashdrive_R.png,small,m,1,1719,4,1,c1_small_flashdrive_R.png,434384,576173,47,Man
5,857075,OSSe5,v2,jsons/s10.json,1364,619,1364,768,9-2-2023,8-11-47,1,5,c11,clipboard,R,classroom,1,scaled,c11_large_clipboard_R.png,large,m,1,1654,5,4,c11_large_clipboard_R.png,434384,576173,47,Man
6,857075,OSSe5,v2,jsons/s10.json,1364,619,1364,768,9-2-2023,8-11-47,1,6,c7,sponge,R,kitchen,0,scaled,c7_small_sponge_R.png,small,m,1,1418,6,1,c7_small_sponge_R.png,434384,576173,47,Man
7,857075,OSSe5,v2,jsons/s10.json,1364,619,1364,768,9-2-2023,8-11-47,1,7,c6,saltshaker,L,kitchen,0,scaled,c6_small_saltshaker_L.png,small,c,1,1728,7,1,c6_small_saltshaker_L.png,434384,576173,47,Man
8,857075,OSSe5,v2,jsons/s10.json,1364,619,1364,768,9-2-2023,8-11-47,1,8,c8,spoon,L,kitchen,0,scaled,c8_small_spoon_L.png,small,c,1,9947,8,4,c8_small_spoon_L.png,434384,576173,47,Man
9,857075,OSSe5,v2,jsons/s10.json,1364,619,1364,768,9-2-2023,8-11-47,1,9,c9,toaster,R,kitchen,0,misscaled,c9_small_toaster_R.png,small,m,1,2159,9,1,c9_small_toaster_R.png,434384,576173,47,Man
10,857075,OSSe5,v2,jsons/s10.json,1364,619,1364,768,9-2-2023,8-11-47,1,10,k11,clipboard,R,classroom,0,misscaled,k11_small_clipboard_R.png,small,m,1,2319,10,1,k11_small_clipboard_R.png,434384,576173,47,Man
11,857075,OSSe5,v2,jsons/s10.json,1364,619,1364,768,9-2-2023,8-11-47,1,11,c3,laptop,R,classroom,1,misscaled,c3_small_laptop_R.png,small,m,1,2069,11,1,c3_small_laptop_R.png,434384,576173,47,Man
12,857075,OSSe5,v2,jsons/s10.json,1364,619,1364,768,9-2-2023,8-11-47,1,12,c4,notebook,L,classroom,1,misscaled,c4_small_notebook_L.png,small,c,1,1814,12,1,c4_small_notebook_L.png,434384,576173,47,Man
13,857075,OSSe5,v2,jsons/s10.json,1364,619,1364,768,9-2-2023,8-11-47,1,13,c10,binderclip,L,classroom,1,misscaled,c10_large_binderclip_L.png,large,c,1,2074,13,7,c10_large_binderclip_L.png,434384,576173,47,Man
14,857075,OSSe5,v2,jsons/s10.json,1364,619,1364,768,9-2-2023,8-11-47,1,14,c5,pot,L,kitchen,0,misscaled,c5_small_pot_L.png,small,c,1,1338,14,1,c5_small_pot_L.png,434384,576173,47,Man
15,857075,OSSe5,v2,jsons/s10.json,1364,619,1364,768,9-2-2023,8-11-47,1,15,k5,pot,L,kitchen,1,scaled,k5_large_pot_L.png,large,c,1,1526,15,4,k5_large_pot_L.png,434384,576173,47,Man
16,857075,OSSe5,v2,jsons/s10.json,1364,619,1364,768,9-2-2023,8-11-47,1,16,k1,flashdrive,L,classroom,0,misscaled,k1_large_flashdrive_L.png,large,c,1,1956,16,7,k1_large_flashdrive_L.png,434384,576173,47,Man
17,857075,OSSe5,v2,jsons/s10.json,1364,619,1364,768,9-2-2023,8-11-47,1,17,k2,kettle,L,kitchen,1,scaled,k2_large_kettle_L.png,large,c,1,1780,17,5,k2_large_kettle_L.png,434384,576173,47,Man
18,857075,OSSe5,v2,jsons/s10.json,1364,619,1364,768,9-2-2023,8-11-47,1,18,k4,notebook,L,classroom,0,scaled,k4_large_notebook_L.png,large,c,1,1854,18,6,k4_large_notebook_L.png,434384,576173,47,Man
19,857075,OSSe5,v2,jsons/s10.json,1364,619,1364,768,9-2-2023,8-11-47,1,19,k3,laptop,R,classroom,0,scaled,k3_large_laptop_R.png,large,m,1,1568,19,4,k3_large_laptop_R.png,434384,576173,47,Man
20,857075,OSSe5,v2,jsons/s10.json,1364,619,1364,768,9-2-2023,8-11-47,1,20,k6,saltshaker,L,kitchen,1,misscaled,k6_large_saltshaker_L.png,large,c,1,1670,20,6,k6_large_saltshaker_L.png,434384,576173,47,Man
21,857075,OSSe5,v2,jsons/s10.json,1364,619,1364,768,9-2-2023,8-11-47,1,21,c0,eraser,R,classroom,1,scaled,c0_small_eraser_R.png,small,m,1,1344,21,1,c0_small_eraser_R.png,434384,576173,47,Man
22,857075,OSSe5,v2,jsons/s10.json,1364,619,1364,768,9-2-2023,8-11-47,1,22,k10,binderclip,R,classroom,0,scaled,k10_small_binderclip_R.png,small,m,1,1637,22,4,k10_small_binderclip_R.png,434384,576173,47,Man
23,857075,OSSe5,v2,jsons/s10.json,1364,619,1364,768,9-2-2023,8-11-47,1,23,k9,toaster,L,kitchen,1,scaled,k9_large_toaster_L.png,large,c,1,1388,23,4,k9_large_toaster_L.png,434384,576173,47,Man
