,subjID,experimentName,versionName,sequenceName,windowWidth,windowHeight,screenWidth,screenHeight,startDate,startTime,pracTries,trialNum,scene,object,side,objectCategory,objSceneSemCong,scale,image,presentationSize,keyPress,accuracy,RT,ratingTrialNum,rating,thisRatingTrialFile,experimentTime,totalTime,age,gender
0,884760,OSSe5,v2,jsons/s16.json,1364,619,1364,768,9-2-2023,12-2-18,1,0,c5,clipboard,L,classroom,1,misscaled,c5_small_clipboard_L.png,small,c,1,1490,0,1,c5_small_clipboard_L.png,295843,394901,1998,Woman
1,884760,OSSe5,v2,jsons/s16.json,1364,619,1364,768,9-2-2023,12-2-18,1,1,c10,notebook,R,classroom,1,misscaled,c10_small_notebook_R.png,small,m,1,1401,1,3,c10_small_notebook_R.png,295843,394901,1998,Woman
2,884760,OSSe5,v2,jsons/s16.json,1364,619,1364,768,9-2-2023,12-2-18,1,2,c8,kettle,R,kitchen,0,misscaled,c8_small_kettle_R.png,small,m,1,1694,2,3,c8_small_kettle_R.png,295843,394901,1998,Woman
3,884760,OSSe5,v2,jsons/s16.json,1364,619,1364,768,9-2-2023,12-2-18,1,3,k1,sponge,R,kitchen,1,scaled,k1_small_sponge_R.png,small,m,1,1042,3,4,k1_small_sponge_R.png,295843,394901,1998,Woman
4,884760,OSSe5,v2,jsons/s16.json,1364,619,1364,768,9-2-2023,12-2-18,1,4,c4,binderclip,R,classroom,1,scaled,c4_small_binderclip_R.png,small,m,1,1606,4,4,c4_small_binderclip_R.png,295843,394901,1998,Woman
5,884760,OSSe5,v2,jsons/s16.json,1364,619,1364,768,9-2-2023,12-2-18,1,5,k6,eraser,R,classroom,0,misscaled,k6_large_eraser_R.png,large,m,1,1299,5,7,k6_large_eraser_R.png,295843,394901,1998,Woman
6,884760,OSSe5,v2,jsons/s16.json,1364,619,1364,768,9-2-2023,12-2-18,1,6,k2,spoon,R,kitchen,1,scaled,k2_small_spoon_R.png,small,m,1,1542,6,5,k2_small_spoon_R.png,295843,394901,1998,Woman
7,884760,OSSe5,v2,jsons/s16.json,1364,619,1364,768,9-2-2023,12-2-18,1,7,k3,toaster,R,kitchen,1,misscaled,k3_small_toaster_R.png,small,m,1,1289,7,3,k3_small_toaster_R.png,295843,394901,1998,Woman
8,884760,OSSe5,v2,jsons/s16.json,1364,619,1364,768,9-2-2023,12-2-18,1,8,k0,saltshaker,L,kitchen,1,scaled,k0_small_saltshaker_L.png,small,c,1,1659,8,2,k0_small_saltshaker_L.png,295843,394901,1998,Woman
9,884760,OSSe5,v2,jsons/s16.json,1364,619,1364,768,9-2-2023,12-2-18,1,9,k5,clipboard,R,classroom,0,scaled,k5_large_clipboard_R.png,large,m,1,1502,9,5,k5_large_clipboard_R.png,295843,394901,1998,Woman
10,884760,OSSe5,v2,jsons/s16.json,1364,619,1364,768,9-2-2023,12-2-18,1,10,c9,laptop,L,classroom,1,misscaled,c9_small_laptop_L.png,small,c,1,1814,10,1,c9_small_laptop_L.png,295843,394901,1998,Woman
11,884760,OSSe5,v2,jsons/s16.json,1364,619,1364,768,9-2-2023,12-2-18,1,11,k8,kettle,R,kitchen,1,scaled,k8_large_kettle_R.png,large,m,1,1198,11,5,k8_large_kettle_R.png,295843,394901,1998,Woman
12,884760,OSSe5,v2,jsons/s16.json,1364,619,1364,768,9-2-2023,12-2-18,1,12,k7,flashdrive,L,classroom,0,misscaled,k7_large_flashdrive_L.png,large,c,1,1690,12,7,k7_large_flashdrive_L.png,295843,394901,1998,Woman
13,884760,OSSe5,v2,jsons/s16.json,1364,619,1364,768,9-2-2023,12-2-18,1,13,k9,laptop,R,classroom,0,scaled,k9_large_laptop_R.png,large,m,1,1474,13,4,k9_large_laptop_R.png,295843,394901,1998,Woman
14,884760,OSSe5,v2,jsons/s16.json,1364,619,1364,768,9-2-2023,12-2-18,1,14,c2,spoon,L,kitchen,0,misscaled,c2_large_spoon_L.png,large,c,1,1746,14,6,c2_large_spoon_L.png,295843,394901,1998,Woman
15,884760,OSSe5,v2,jsons/s16.json,1364,619,1364,768,9-2-2023,12-2-18,1,15,c6,eraser,L,classroom,1,scaled,c6_small_eraser_L.png,small,c,1,1497,15,5,c6_small_eraser_L.png,295843,394901,1998,Woman
16,884760,OSSe5,v2,jsons/s16.json,1364,619,1364,768,9-2-2023,12-2-18,1,16,k11,pot,L,kitchen,1,scaled,k11_large_pot_L.png,large,c,1,2494,16,4,k11_large_pot_L.png,295843,394901,1998,Woman
17,884760,OSSe5,v2,jsons/s16.json,1364,619,1364,768,9-2-2023,12-2-18,1,17,c7,flashdrive,L,classroom,1,scaled,c7_small_flashdrive_L.png,small,c,1,1542,17,4,c7_small_flashdrive_L.png,295843,394901,1998,Woman
18,884760,OSSe5,v2,jsons/s16.json,1364,619,1364,768,9-2-2023,12-2-18,1,18,c3,toaster,R,kitchen,0,scaled,c3_large_toaster_R.png,large,m,1,1630,18,4,c3_large_toaster_R.png,295843,394901,1998,Woman
19,884760,OSSe5,v2,jsons/s16.json,1364,619,1364,768,9-2-2023,12-2-18,1,19,c0,saltshaker,L,kitchen,0,misscaled,c0_large_saltshaker_L.png,large,c,1,1365,19,7,c0_large_saltshaker_L.png,295843,394901,1998,Woman
20,884760,OSSe5,v2,jsons/s16.json,1364,619,1364,768,9-2-2023,12-2-18,1,20,k4,binderclip,L,classroom,0,misscaled,k4_large_binderclip_L.png,large,c,1,1538,20,7,k4_large_binderclip_L.png,295843,394901,1998,Woman
21,884760,OSSe5,v2,jsons/s16.json,1364,619,1364,768,9-2-2023,12-2-18,1,21,c1,sponge,L,kitchen,0,misscaled,c1_large_sponge_L.png,large,c,1,1282,21,7,c1_large_sponge_L.png,295843,394901,1998,Woman
22,884760,OSSe5,v2,jsons/s16.json,1364,619,1364,768,9-2-2023,12-2-18,1,22,k10,notebook,R,classroom,0,scaled,k10_large_notebook_R.png,large,m,1,1653,22,4,k10_large_notebook_R.png,295843,394901,1998,Woman
23,884760,OSSe5,v2,jsons/s16.json,1364,619,1364,768,9-2-2023,12-2-18,1,23,c11,pot,L,kitchen,0,misscaled,c11_small_pot_L.png,small,c,1,1815,23,3,c11_small_pot_L.png,295843,394901,1998,Woman
