,subjID,experimentName,versionName,sequenceName,windowWidth,windowHeight,screenWidth,screenHeight,startDate,startTime,pracTries,trialNum,scene,object,side,objectCategory,objSceneSemCong,scale,image,presentationSize,keyPress,accuracy,RT,ratingTrialNum,rating,thisRatingTrialFile,experimentTime,totalTime,age,gender
0,991987,OSSe5,v2,jsons/s21.json,1366,619,1366,768,9-2-2023,11-28-22,4,0,k11,eraser,R,classroom,0,misscaled,k11_large_eraser_R.png,large,c,0,186,0,7,k11_large_eraser_R.png,321458,520529,30,Man
1,991987,OSSe5,v2,jsons/s21.json,1366,619,1366,768,9-2-2023,11-28-22,4,1,c7,spoon,L,kitchen,0,misscaled,c7_large_spoon_L.png,large,c,1,1174,1,4,c7_large_spoon_L.png,321458,520529,30,Man
2,991987,OSSe5,v2,jsons/s21.json,1366,619,1366,768,9-2-2023,11-28-22,4,2,c0,flashdrive,L,classroom,1,misscaled,c0_large_flashdrive_L.png,large,c,1,4025,2,7,c0_large_flashdrive_L.png,321458,520529,30,Man
3,991987,OSSe5,v2,jsons/s21.json,1366,619,1366,768,9-2-2023,11-28-22,4,3,c6,sponge,L,kitchen,0,misscaled,c6_large_sponge_L.png,large,m,0,5544,3,7,c6_large_sponge_L.png,321458,520529,30,Man
4,991987,OSSe5,v2,jsons/s21.json,1366,619,1366,768,9-2-2023,11-28-22,4,4,c8,toaster,L,kitchen,0,scaled,c8_large_toaster_L.png,large,c,1,1352,4,6,c8_large_toaster_L.png,321458,520529,30,Man
5,991987,OSSe5,v2,jsons/s21.json,1366,619,1366,768,9-2-2023,11-28-22,4,5,k4,pot,R,kitchen,1,misscaled,k4_small_pot_R.png,small,c,0,1324,5,6,k4_small_pot_R.png,321458,520529,30,Man
6,991987,OSSe5,v2,jsons/s21.json,1366,619,1366,768,9-2-2023,11-28-22,4,6,k1,kettle,L,kitchen,1,misscaled,k1_small_kettle_L.png,small,c,1,2242,6,4,k1_small_kettle_L.png,321458,520529,30,Man
7,991987,OSSe5,v2,jsons/s21.json,1366,619,1366,768,9-2-2023,11-28-22,4,7,c5,saltshaker,R,kitchen,0,misscaled,c5_large_saltshaker_R.png,large,c,0,1809,7,7,c5_large_saltshaker_R.png,321458,520529,30,Man
8,991987,OSSe5,v2,jsons/s21.json,1366,619,1366,768,9-2-2023,11-28-22,4,8,k2,laptop,R,classroom,0,misscaled,k2_small_laptop_R.png,small,m,1,722,8,2,k2_small_laptop_R.png,321458,520529,30,Man
9,991987,OSSe5,v2,jsons/s21.json,1366,619,1366,768,9-2-2023,11-28-22,4,9,c1,kettle,L,kitchen,0,scaled,c1_large_kettle_L.png,large,m,0,787,9,4,c1_large_kettle_L.png,321458,520529,30,Man
10,991987,OSSe5,v2,jsons/s21.json,1366,619,1366,768,9-2-2023,11-28-22,4,10,c9,binderclip,R,classroom,1,scaled,c9_small_binderclip_R.png,small,m,1,3024,10,7,c9_small_binderclip_R.png,321458,520529,30,Man
11,991987,OSSe5,v2,jsons/s21.json,1366,619,1366,768,9-2-2023,11-28-22,4,11,k3,notebook,R,classroom,0,misscaled,k3_small_notebook_R.png,small,m,1,3535,11,6,k3_small_notebook_R.png,321458,520529,30,Man
12,991987,OSSe5,v2,jsons/s21.json,1366,619,1366,768,9-2-2023,11-28-22,4,12,c10,clipboard,R,classroom,1,misscaled,c10_small_clipboard_R.png,small,c,0,732,12,4,c10_small_clipboard_R.png,321458,520529,30,Man
13,991987,OSSe5,v2,jsons/s21.json,1366,619,1366,768,9-2-2023,11-28-22,4,13,k9,binderclip,R,classroom,0,misscaled,k9_large_binderclip_R.png,large,c,0,1418,13,4,k9_large_binderclip_R.png,321458,520529,30,Man
14,991987,OSSe5,v2,jsons/s21.json,1366,619,1366,768,9-2-2023,11-28-22,4,14,k8,toaster,R,kitchen,1,misscaled,k8_small_toaster_R.png,small,m,1,876,14,7,k8_small_toaster_R.png,321458,520529,30,Man
15,991987,OSSe5,v2,jsons/s21.json,1366,619,1366,768,9-2-2023,11-28-22,4,15,c11,eraser,L,classroom,1,scaled,c11_small_eraser_L.png,small,c,1,2092,15,7,c11_small_eraser_L.png,321458,520529,30,Man
16,991987,OSSe5,v2,jsons/s21.json,1366,619,1366,768,9-2-2023,11-28-22,4,16,k7,spoon,R,kitchen,1,scaled,k7_small_spoon_R.png,small,c,0,2098,16,6,k7_small_spoon_R.png,321458,520529,30,Man
17,991987,OSSe5,v2,jsons/s21.json,1366,619,1366,768,9-2-2023,11-28-22,4,17,c3,notebook,L,classroom,1,scaled,c3_large_notebook_L.png,large,m,0,3742,17,5,c3_large_notebook_L.png,321458,520529,30,Man
18,991987,OSSe5,v2,jsons/s21.json,1366,619,1366,768,9-2-2023,11-28-22,4,18,k5,saltshaker,L,kitchen,1,scaled,k5_small_saltshaker_L.png,small,c,1,844,18,5,k5_small_saltshaker_L.png,321458,520529,30,Man
19,991987,OSSe5,v2,jsons/s21.json,1366,619,1366,768,9-2-2023,11-28-22,4,19,c2,laptop,L,classroom,1,scaled,c2_large_laptop_L.png,large,m,0,1984,19,6,c2_large_laptop_L.png,321458,520529,30,Man
20,991987,OSSe5,v2,jsons/s21.json,1366,619,1366,768,9-2-2023,11-28-22,4,20,k10,clipboard,R,classroom,0,scaled,k10_large_clipboard_R.png,large,c,0,267,20,6,k10_large_clipboard_R.png,321458,520529,30,Man
21,991987,OSSe5,v2,jsons/s21.json,1366,619,1366,768,9-2-2023,11-28-22,4,21,k0,flashdrive,L,classroom,0,scaled,k0_small_flashdrive_L.png,small,m,0,404,21,6,k0_small_flashdrive_L.png,321458,520529,30,Man
22,991987,OSSe5,v2,jsons/s21.json,1366,619,1366,768,9-2-2023,11-28-22,4,22,c4,pot,R,kitchen,0,scaled,c4_large_pot_R.png,large,c,0,120,22,6,c4_large_pot_R.png,321458,520529,30,Man
23,991987,OSSe5,v2,jsons/s21.json,1366,619,1366,768,9-2-2023,11-28-22,4,23,k6,sponge,L,kitchen,1,scaled,k6_small_sponge_L.png,small,c,1,2003,23,7,k6_small_sponge_L.png,321458,520529,30,Man
