subjID,experimentName,versionName,sequenceName,zsRT,windowWidth,windowHeight,screenWidth,screenHeight,startDate,startTime,pracTries,trialNum,scene,size_name,image_name,object,side,objectCategory,objSceneSemCong,scale,image,presentationSize,keyPress,accuracy,RT,ratingTrialNum,rating,thisRatingTrialFile,experimentTime,totalTime,age,gender
871149,OSSe5,v2,jsons/s22.json,-0.479510419,1440,815,1440,900,9/2/23,11/25/01,1,0,k5,k5_small_pot,k5_small_pot,pot,R,kitchen,1,misscaled,k5_small_pot_R.png,small,m,1,710,0,2,k5_small_pot_R.png,217736,293277,28,Man
871149,OSSe5,v2,jsons/s22.json,-0.002665293,1440,815,1440,900,9/2/23,11/25/01,1,1,c1,c1_large_flashdrive,c1_large_flashdrive,flashdrive,R,classroom,1,misscaled,c1_large_flashdrive_R.png,large,m,1,792,1,7,c1_large_flashdrive_R.png,217736,293277,28,Man
871149,OSSe5,v2,jsons/s22.json,-0.630705215,1440,815,1440,900,9/2/23,11/25/01,1,2,k0,k0_small_eraser,k0_small_eraser,eraser,R,classroom,0,scaled,k0_small_eraser_R.png,small,m,1,684,2,5,k0_small_eraser_R.png,217736,293277,28,Man
871149,OSSe5,v2,jsons/s22.json,-0.334130807,1440,815,1440,900,9/2/23,11/25/01,1,3,c6,c6_large_saltshaker,c6_large_saltshaker,saltshaker,L,kitchen,0,misscaled,c6_large_saltshaker_L.png,large,c,1,735,3,7,c6_large_saltshaker_L.png,217736,293277,28,Man
871149,OSSe5,v2,jsons/s22.json,-1.072659235,1440,815,1440,900,9/2/23,11/25/01,1,4,c10,c10_small_binderclip,c10_small_binderclip,binderclip,R,classroom,1,scaled,c10_small_binderclip_R.png,small,m,1,608,4,5,c10_small_binderclip_R.png,217736,293277,28,Man
871149,OSSe5,v2,jsons/s22.json,0.3753216973903994,1440,815,1440,900,9/2/23,11/25/01,1,5,k1,k1_small_flashdrive,k1_small_flashdrive,flashdrive,L,classroom,0,scaled,k1_small_flashdrive_L.png,small,c,1,857,5,5,k1_small_flashdrive_L.png,217736,293277,28,Man
871149,OSSe5,v2,jsons/s22.json,-1.357603273,1440,815,1440,900,9/2/23,11/25/01,1,6,c4,c4_large_notebook,c4_large_notebook,notebook,R,classroom,1,scaled,c4_large_notebook_R.png,large,m,1,559,6,5,c4_large_notebook_R.png,217736,293277,28,Man
871149,OSSe5,v2,jsons/s22.json,-1.427385487,1440,815,1440,900,9/2/23,11/25/01,1,7,c0,c0_large_eraser,c0_large_eraser,eraser,L,classroom,1,misscaled,c0_large_eraser_L.png,large,c,1,547,7,7,c0_large_eraser_L.png,217736,293277,28,Man
871149,OSSe5,v2,jsons/s22.json,0.5962987070870065,1440,815,1440,900,9/2/23,11/25/01,1,8,k6,k6_small_saltshaker,k6_small_saltshaker,saltshaker,R,kitchen,1,scaled,k6_small_saltshaker_R.png,small,m,1,895,8,4,k6_small_saltshaker_R.png,217736,293277,28,Man
871149,OSSe5,v2,jsons/s22.json,0.8463516391121146,1440,815,1440,900,9/2/23,11/25/01,1,9,c8,c8_large_spoon,c8_large_spoon,spoon,R,kitchen,0,misscaled,c8_large_spoon_R.png,large,m,1,938,9,7,c8_large_spoon_R.png,217736,293277,28,Man
871149,OSSe5,v2,jsons/s22.json,-0.584183739,1440,815,1440,900,9/2/23,11/25/01,1,10,c7,c7_large_sponge,c7_large_sponge,sponge,L,kitchen,0,misscaled,c7_large_sponge_L.png,large,c,1,692,10,6,c7_large_sponge_L.png,217736,293277,28,Man
871149,OSSe5,v2,jsons/s22.json,-0.24690304,1440,815,1440,900,9/2/23,11/25/01,1,11,c11,c11_small_clipboard,c11_small_clipboard,clipboard,L,classroom,1,misscaled,c11_small_clipboard_L.png,small,c,1,750,11,4,c11_small_clipboard_L.png,217736,293277,28,Man
871149,OSSe5,v2,jsons/s22.json,-0.997061837,1440,815,1440,900,9/2/23,11/25/01,1,12,k7,k7_small_sponge,k7_small_sponge,sponge,L,kitchen,1,scaled,k7_small_sponge_L.png,small,c,1,621,12,5,k7_small_sponge_L.png,217736,293277,28,Man
871149,OSSe5,v2,jsons/s22.json,2.218735173017359,1440,815,1440,900,9/2/23,11/25/01,1,13,k2,k2_small_kettle,k2_small_kettle,kettle,L,kitchen,1,misscaled,k2_small_kettle_L.png,small,c,1,1174,13,3,k2_small_kettle_L.png,217736,293277,28,Man
871149,OSSe5,v2,jsons/s22.json,0.7881997944551127,1440,815,1440,900,9/2/23,11/25/01,1,14,k9,k9_small_toaster,k9_small_toaster,toaster,R,kitchen,1,misscaled,k9_small_toaster_R.png,small,m,1,928,14,2,k9_small_toaster_R.png,217736,293277,28,Man
871149,OSSe5,v2,jsons/s22.json,0.9335794060976174,1440,815,1440,900,9/2/23,11/25/01,1,15,k10,k10_large_binderclip,k10_large_binderclip,binderclip,R,classroom,0,misscaled,k10_large_binderclip_R.png,large,m,1,953,15,7,k10_large_binderclip_R.png,217736,293277,28,Man
871149,OSSe5,v2,jsons/s22.json,-0.252718225,1440,815,1440,900,9/2/23,11/25/01,1,16,c3,c3_large_laptop,c3_large_laptop,laptop,L,classroom,1,scaled,c3_large_laptop_L.png,large,c,1,749,16,4,c3_large_laptop_L.png,217736,293277,28,Man
871149,OSSe5,v2,jsons/s22.json,0.7998301633865131,1440,815,1440,900,9/2/23,11/25/01,1,17,k3,k3_small_laptop,k3_small_laptop,laptop,R,classroom,0,misscaled,k3_small_laptop_R.png,small,m,1,930,17,1,k3_small_laptop_R.png,217736,293277,28,Man
871149,OSSe5,v2,jsons/s22.json,0.8172757167836137,1440,815,1440,900,9/2/23,11/25/01,1,18,k11,k11_large_clipboard,k11_large_clipboard,clipboard,L,classroom,0,scaled,k11_large_clipboard_L.png,large,c,1,933,18,5,k11_large_clipboard_L.png,217736,293277,28,Man
871149,OSSe5,v2,jsons/s22.json,-1.084289604,1440,815,1440,900,9/2/23,11/25/01,1,19,k8,k8_small_spoon,k8_small_spoon,spoon,L,kitchen,1,scaled,k8_small_spoon_L.png,small,c,1,606,19,4,k8_small_spoon_L.png,217736,293277,28,Man
871149,OSSe5,v2,jsons/s22.json,0.8754275614406155,1440,815,1440,900,9/2/23,11/25/01,1,20,c9,c9_large_toaster,c9_large_toaster,toaster,R,kitchen,0,scaled,c9_large_toaster_R.png,large,m,1,943,20,6,c9_large_toaster_R.png,217736,293277,28,Man
871149,OSSe5,v2,jsons/s22.json,1.875639289541048,1440,815,1440,900,9/2/23,11/25/01,1,21,k4,k4_small_notebook,k4_small_notebook,notebook,R,classroom,0,misscaled,k4_small_notebook_R.png,small,m,1,1115,21,4,k4_small_notebook_R.png,217736,293277,28,Man
871149,OSSe5,v2,jsons/s22.json,-0.84586704,1440,815,1440,900,9/2/23,11/25/01,1,22,c5,c5_large_pot,c5_large_pot,pot,L,kitchen,0,scaled,c5_large_pot_L.png,large,c,1,647,22,5,c5_large_pot_L.png,217736,293277,28,Man
871149,OSSe5,v2,jsons/s22.json,-0.810975934,1440,815,1440,900,9/2/23,11/25/01,1,23,c2,c2_large_kettle,c2_large_kettle,kettle,L,kitchen,0,scaled,c2_large_kettle_L.png,large,c,1,653,23,5,c2_large_kettle_L.png,217736,293277,28,Man
475660,OSSe5,v2,jsons/s13.json,-0.283315435,1364,619,1364,768,9/3/23,10/17/36,1,0,k10,k10_large_sponge,k10_large_sponge,sponge,R,kitchen,1,misscaled,k10_large_sponge_R.png,large,m,1,1557,0,7,k10_large_sponge_R.png,322737,399618,1998,Woman
475660,OSSe5,v2,jsons/s13.json,-0.894131495,1364,619,1364,768,9/3/23,10/17/36,1,1,c10,c10_small_sponge,c10_small_sponge,sponge,L,kitchen,0,scaled,c10_small_sponge_L.png,small,c,1,1269,1,3,c10_small_sponge_L.png,322737,399618,1998,Woman
475660,OSSe5,v2,jsons/s13.json,-0.711735033,1364,619,1364,768,9/3/23,10/17/36,1,2,c0,c0_large_toaster,c0_large_toaster,toaster,R,kitchen,0,scaled,c0_large_toaster_R.png,large,m,1,1355,2,5,c0_large_toaster_R.png,322737,399618,1998,Woman
475660,OSSe5,v2,jsons/s13.json,0.007246371,1364,619,1364,768,9/3/23,10/17/36,1,3,c5,c5_small_kettle,c5_small_kettle,kettle,L,kitchen,0,misscaled,c5_small_kettle_L.png,small,c,1,1694,3,2,c5_small_kettle_L.png,322737,399618,1998,Woman
475660,OSSe5,v2,jsons/s13.json,-0.495404345,1364,619,1364,768,9/3/23,10/17/36,1,4,k0,k0_small_toaster,k0_small_toaster,toaster,L,kitchen,1,misscaled,k0_small_toaster_L.png,small,c,1,1457,4,3,k0_small_toaster_L.png,322737,399618,1998,Woman
475660,OSSe5,v2,jsons/s13.json,-0.67143814,1364,619,1364,768,9/3/23,10/17/36,1,5,k5,k5_large_kettle,k5_large_kettle,kettle,R,kitchen,1,scaled,k5_large_kettle_R.png,large,m,1,1374,5,5,k5_large_kettle_R.png,322737,399618,1998,Woman
475660,OSSe5,v2,jsons/s13.json,-0.103039862,1364,619,1364,768,9/3/23,10/17/36,1,6,c6,c6_small_laptop,c6_small_laptop,laptop,L,classroom,1,misscaled,c6_small_laptop_L.png,small,c,1,1642,6,3,c6_small_laptop_L.png,322737,399618,1998,Woman
475660,OSSe5,v2,jsons/s13.json,-0.832625712,1364,619,1364,768,9/3/23,10/17/36,1,7,k6,k6_large_laptop,k6_large_laptop,laptop,R,classroom,0,scaled,k6_large_laptop_R.png,large,m,1,1298,7,4,k6_large_laptop_R.png,322737,399618,1998,Woman
475660,OSSe5,v2,jsons/s13.json,-0.720218589,1364,619,1364,768,9/3/23,10/17/36,1,8,k9,k9_large_saltshaker,k9_large_saltshaker,saltshaker,L,kitchen,1,misscaled,k9_large_saltshaker_L.png,large,c,1,1351,8,7,k9_large_saltshaker_L.png,322737,399618,1998,Woman
475660,OSSe5,v2,jsons/s13.json,-1.036231065,1364,619,1364,768,9/3/23,10/17/36,1,9,k1,k1_large_binderclip,k1_large_binderclip,binderclip,R,classroom,0,misscaled,k1_large_binderclip_R.png,large,m,1,1202,9,7,k1_large_binderclip_R.png,322737,399618,1998,Woman
475660,OSSe5,v2,jsons/s13.json,-0.866559937,1364,619,1364,768,9/3/23,10/17/36,1,10,c3,c3_small_eraser,c3_small_eraser,eraser,L,classroom,1,scaled,c3_small_eraser_L.png,small,c,1,1282,10,5,c3_small_eraser_L.png,322737,399618,1998,Woman
475660,OSSe5,v2,jsons/s13.json,-0.762636371,1364,619,1364,768,9/3/23,10/17/36,1,11,c1,c1_small_binderclip,c1_small_binderclip,binderclip,R,classroom,1,scaled,c1_small_binderclip_R.png,small,m,1,1331,11,5,c1_small_binderclip_R.png,322737,399618,1998,Woman
475660,OSSe5,v2,jsons/s13.json,2.724105305223193,1364,619,1364,768,9/3/23,10/17/36,1,12,c4,c4_small_flashdrive,c4_small_flashdrive,flashdrive,R,classroom,1,scaled,c4_small_flashdrive_R.png,small,m,1,2975,12,5,c4_small_flashdrive_R.png,322737,399618,1998,Woman
475660,OSSe5,v2,jsons/s13.json,0.22145616995034476,1364,619,1364,768,9/3/23,10/17/36,1,13,c11,c11_small_spoon,c11_small_spoon,spoon,L,kitchen,0,scaled,c11_small_spoon_L.png,small,c,1,1795,13,5,c11_small_spoon_L.png,322737,399618,1998,Woman
475660,OSSe5,v2,jsons/s13.json,0.092081935,1364,619,1364,768,9/3/23,10/17/36,1,14,c2,c2_small_clipboard,c2_small_clipboard,clipboard,L,classroom,1,misscaled,c2_small_clipboard_L.png,small,c,1,1734,14,2,c2_small_clipboard_L.png,322737,399618,1998,Woman
475660,OSSe5,v2,jsons/s13.json,1.8460572187800075,1364,619,1364,768,9/3/23,10/17/36,1,15,k2,k2_large_clipboard,k2_large_clipboard,clipboard,R,classroom,0,scaled,k2_large_clipboard_R.png,large,m,1,2561,15,5,k2_large_clipboard_R.png,322737,399618,1998,Woman
475660,OSSe5,v2,jsons/s13.json,0.408094411,1364,619,1364,768,9/3/23,10/17/36,1,16,c8,c8_small_pot,c8_small_pot,pot,R,kitchen,0,misscaled,c8_small_pot_R.png,small,m,1,1883,16,3,c8_small_pot_R.png,322737,399618,1998,Woman
475660,OSSe5,v2,jsons/s13.json,0.5417104237013618,1364,619,1364,768,9/3/23,10/17/36,1,17,k7,k7_large_notebook,k7_large_notebook,notebook,R,classroom,0,scaled,k7_large_notebook_R.png,large,m,1,1946,17,5,k7_large_notebook_R.png,322737,399618,1998,Woman
475660,OSSe5,v2,jsons/s13.json,1.358252726311571,1364,619,1364,768,9/3/23,10/17/36,1,18,c7,c7_small_notebook,c7_small_notebook,notebook,L,classroom,1,misscaled,c7_small_notebook_L.png,small,c,1,2331,18,3,c7_small_notebook_L.png,322737,399618,1998,Woman
475660,OSSe5,v2,jsons/s13.json,0.2893246210763881,1364,619,1364,768,9/3/23,10/17/36,1,19,c9,c9_small_saltshaker,c9_small_saltshaker,saltshaker,L,kitchen,0,scaled,c9_small_saltshaker_L.png,small,c,1,1827,19,4,c9_small_saltshaker_L.png,322737,399618,1998,Woman
475660,OSSe5,v2,jsons/s13.json,1.706078538332543,1364,619,1364,768,9/3/23,10/17/36,1,20,k4,k4_large_flashdrive,k4_large_flashdrive,flashdrive,R,classroom,0,misscaled,k4_large_flashdrive_R.png,large,m,1,2495,20,7,k4_large_flashdrive_R.png,322737,399618,1998,Woman
475660,OSSe5,v2,jsons/s13.json,-0.645987471,1364,619,1364,768,9/3/23,10/17/36,1,21,k3,k3_large_eraser,k3_large_eraser,eraser,L,classroom,0,misscaled,k3_large_eraser_L.png,large,c,1,1386,21,7,k3_large_eraser_L.png,322737,399618,1998,Woman
475660,OSSe5,v2,jsons/s13.json,-0.586602576,1364,619,1364,768,9/3/23,10/17/36,1,22,k8,k8_large_pot,k8_large_pot,pot,L,kitchen,1,scaled,k8_large_pot_L.png,large,c,1,1414,22,5,k8_large_pot_L.png,322737,399618,1998,Woman
475660,OSSe5,v2,jsons/s13.json,-0.584481687,1364,619,1364,768,9/3/23,10/17/36,1,23,k11,k11_large_spoon,k11_large_spoon,spoon,R,kitchen,1,misscaled,k11_large_spoon_R.png,large,m,1,1415,23,7,k11_large_spoon_R.png,322737,399618,1998,Woman
625308,OSSe5,v2,jsons/s14.json,-0.876756242,1263,603,1280,720,9/2/23,16-7-4,1,1,k9,k9_large_pot,k9_large_pot,pot,R,kitchen,1,scaled,k9_large_pot_R.png,large,m,1,1394,1,4,k9_large_pot_R.png,322478,382440,35,Man
625308,OSSe5,v2,jsons/s14.json,-0.974028852,1263,603,1280,720,9/2/23,16-7-4,1,2,k1,k1_small_toaster,k1_small_toaster,toaster,L,kitchen,1,misscaled,k1_small_toaster_L.png,small,c,1,1338,2,1,k1_small_toaster_L.png,322478,382440,35,Man
625308,OSSe5,v2,jsons/s14.json,1.0374297489737483,1263,603,1280,720,9/2/23,16-7-4,1,3,c1,c1_large_toaster,c1_large_toaster,toaster,L,kitchen,0,scaled,c1_large_toaster_L.png,large,c,1,2496,3,4,c1_large_toaster_L.png,322478,382440,35,Man
625308,OSSe5,v2,jsons/s14.json,-0.246221292,1263,603,1280,720,9/2/23,16-7-4,1,4,k11,k11_large_sponge,k11_large_sponge,sponge,L,kitchen,1,misscaled,k11_large_sponge_L.png,large,c,1,1757,4,7,k11_large_sponge_L.png,322478,382440,35,Man
625308,OSSe5,v2,jsons/s14.json,-0.168055803,1263,603,1280,720,9/2/23,16-7-4,1,5,k4,k4_large_eraser,k4_large_eraser,eraser,R,classroom,0,misscaled,k4_large_eraser_R.png,large,m,1,1802,5,7,k4_large_eraser_R.png,322478,382440,35,Man
625308,OSSe5,v2,jsons/s14.json,0.054281590046763716,1263,603,1280,720,9/2/23,16-7-4,1,6,c11,c11_small_sponge,c11_small_sponge,sponge,R,kitchen,0,scaled,c11_small_sponge_R.png,small,m,1,1930,6,4,c11_small_sponge_R.png,322478,382440,35,Man
625308,OSSe5,v2,jsons/s14.json,-0.972291841,1263,603,1280,720,9/2/23,16-7-4,1,7,k5,k5_large_flashdrive,k5_large_flashdrive,flashdrive,R,classroom,0,misscaled,k5_large_flashdrive_R.png,large,m,1,1339,7,6,k5_large_flashdrive_R.png,322478,382440,35,Man
625308,OSSe5,v2,jsons/s14.json,-0.696107111,1263,603,1280,720,9/2/23,16-7-4,1,8,c2,c2_small_binderclip,c2_small_binderclip,binderclip,L,classroom,1,scaled,c2_small_binderclip_L.png,small,c,1,1498,8,4,c2_small_binderclip_L.png,322478,382440,35,Man
625308,OSSe5,v2,jsons/s14.json,0.040385503,1263,603,1280,720,9/2/23,16-7-4,1,9,k0,k0_small_spoon,k0_small_spoon,spoon,R,kitchen,1,scaled,k0_small_spoon_R.png,small,m,1,1922,9,4,k0_small_spoon_R.png,322478,382440,35,Man
625308,OSSe5,v2,jsons/s14.json,-0.015198845,1263,603,1280,720,9/2/23,16-7-4,1,10,c8,c8_small_notebook,c8_small_notebook,notebook,L,classroom,1,misscaled,c8_small_notebook_L.png,small,c,1,1890,10,4,c8_small_notebook_L.png,322478,382440,35,Man
625308,OSSe5,v2,jsons/s14.json,-0.440766511,1263,603,1280,720,9/2/23,16-7-4,1,11,k3,k3_large_clipboard,k3_large_clipboard,clipboard,L,classroom,0,scaled,k3_large_clipboard_L.png,large,c,1,1645,11,4,k3_large_clipboard_L.png,322478,382440,35,Man
625308,OSSe5,v2,jsons/s14.json,0.12202501442512485,1263,603,1280,720,9/2/23,16-7-4,1,12,c7,c7_small_laptop,c7_small_laptop,laptop,R,classroom,1,misscaled,c7_small_laptop_R.png,small,m,1,1969,12,1,c7_small_laptop_R.png,322478,382440,35,Man
625308,OSSe5,v2,jsons/s14.json,0.2210346346704219,1263,603,1280,720,9/2/23,16-7-4,1,13,k2,k2_large_binderclip,k2_large_binderclip,binderclip,L,classroom,0,misscaled,k2_large_binderclip_L.png,large,c,1,2026,13,6,k2_large_binderclip_L.png,322478,382440,35,Man
625308,OSSe5,v2,jsons/s14.json,0.8897838240465509,1263,603,1280,720,9/2/23,16-7-4,1,14,c3,c3_small_clipboard,c3_small_clipboard,clipboard,R,classroom,1,misscaled,c3_small_clipboard_R.png,small,m,1,2411,14,2,c3_small_clipboard_R.png,322478,382440,35,Man
625308,OSSe5,v2,jsons/s14.json,-1.013980102,1263,603,1280,720,9/2/23,16-7-4,1,15,c0,c0_large_spoon,c0_large_spoon,spoon,R,kitchen,0,misscaled,c0_large_spoon_R.png,large,m,1,1315,15,7,c0_large_spoon_R.png,322478,382440,35,Man
625308,OSSe5,v2,jsons/s14.json,-0.376497109,1263,603,1280,720,9/2/23,16-7-4,1,16,c10,c10_small_saltshaker,c10_small_saltshaker,saltshaker,L,kitchen,0,scaled,c10_small_saltshaker_L.png,small,c,1,1682,16,4,c10_small_saltshaker_L.png,322478,382440,35,Man
625308,OSSe5,v2,jsons/s14.json,-0.786431677,1263,603,1280,720,9/2/23,16-7-4,1,17,k7,k7_large_laptop,k7_large_laptop,laptop,L,classroom,0,scaled,k7_large_laptop_L.png,large,c,1,1446,17,5,k7_large_laptop_L.png,322478,382440,35,Man
625308,OSSe5,v2,jsons/s14.json,3.286858840511637,1263,603,1280,720,9/2/23,16-7-4,1,18,c5,c5_small_flashdrive,c5_small_flashdrive,flashdrive,R,classroom,1,scaled,c5_small_flashdrive_R.png,small,m,1,3791,18,5,c5_small_flashdrive_R.png,322478,382440,35,Man
625308,OSSe5,v2,jsons/s14.json,0.4207908860425124,1263,603,1280,720,9/2/23,16-7-4,1,19,c4,c4_small_eraser,c4_small_eraser,eraser,R,classroom,1,scaled,c4_small_eraser_R.png,small,m,1,2141,19,6,c4_small_eraser_R.png,322478,382440,35,Man
625308,OSSe5,v2,jsons/s14.json,-1.031350211,1263,603,1280,720,9/2/23,16-7-4,1,20,k8,k8_large_notebook,k8_large_notebook,notebook,R,classroom,0,scaled,k8_large_notebook_R.png,large,m,1,1305,20,6,k8_large_notebook_R.png,322478,382440,35,Man
625308,OSSe5,v2,jsons/s14.json,-0.79337972,1263,603,1280,720,9/2/23,16-7-4,1,21,c9,c9_small_pot,c9_small_pot,pot,R,kitchen,0,misscaled,c9_small_pot_R.png,small,m,1,1442,21,1,c9_small_pot_R.png,322478,382440,35,Man
625308,OSSe5,v2,jsons/s14.json,-0.098575368,1263,603,1280,720,9/2/23,16-7-4,1,22,k6,k6_large_kettle,k6_large_kettle,kettle,L,kitchen,1,scaled,k6_large_kettle_L.png,large,c,1,1842,22,5,k6_large_kettle_L.png,322478,382440,35,Man
625308,OSSe5,v2,jsons/s14.json,0.8619916499426079,1263,603,1280,720,9/2/23,16-7-4,1,23,c6,c6_small_kettle,c6_small_kettle,kettle,L,kitchen,0,misscaled,c6_small_kettle_L.png,small,c,1,2395,23,1,c6_small_kettle_L.png,322478,382440,35,Man
900160,OSSe5,v2,jsons/s3.json,-0.765087235,1364,651,1364,768,9/2/23,10-54-6,1,0,c10,c10_large_pot,c10_large_pot,pot,L,kitchen,0,scaled,c10_large_pot_L.png,large,c,1,1217,0,4,c10_large_pot_L.png,234080,2016311,24,Woman
900160,OSSe5,v2,jsons/s3.json,0.3148176252414536,1364,651,1364,768,9/2/23,10-54-6,1,1,k3,k3_small_binderclip,k3_small_binderclip,binderclip,L,classroom,0,scaled,k3_small_binderclip_L.png,small,c,1,1508,1,3,k3_small_binderclip_L.png,234080,2016311,24,Woman
900160,OSSe5,v2,jsons/s3.json,-0.14534802,1364,651,1364,768,9/2/23,10-54-6,1,2,c7,c7_large_kettle,c7_large_kettle,kettle,L,kitchen,0,scaled,c7_large_kettle_L.png,large,c,1,1384,2,4,c7_large_kettle_L.png,234080,2016311,24,Woman
900160,OSSe5,v2,jsons/s3.json,-0.991459044,1364,651,1364,768,9/2/23,10-54-6,1,3,k5,k5_small_eraser,k5_small_eraser,eraser,R,classroom,0,scaled,k5_small_eraser_R.png,small,m,1,1156,3,6,k5_small_eraser_R.png,234080,2016311,24,Woman
900160,OSSe5,v2,jsons/s3.json,0.8343594822214562,1364,651,1364,768,9/2/23,10-54-6,1,4,c3,c3_large_binderclip,c3_large_binderclip,binderclip,R,classroom,1,misscaled,c3_large_binderclip_R.png,large,m,1,1648,4,7,c3_large_binderclip_R.png,234080,2016311,24,Woman
900160,OSSe5,v2,jsons/s3.json,-1.113922481,1364,651,1364,768,9/2/23,10-54-6,1,5,c5,c5_large_eraser,c5_large_eraser,eraser,R,classroom,1,misscaled,c5_large_eraser_R.png,large,m,1,1123,5,7,c5_large_eraser_R.png,234080,2016311,24,Woman
900160,OSSe5,v2,jsons/s3.json,1.9068423155587475,1364,651,1364,768,9/2/23,10-54-6,1,6,k4,k4_small_clipboard,k4_small_clipboard,clipboard,L,classroom,0,misscaled,k4_small_clipboard_L.png,small,c,1,1937,6,4,k4_small_clipboard_L.png,234080,2016311,24,Woman
900160,OSSe5,v2,jsons/s3.json,-0.716844062,1364,651,1364,768,9/2/23,10-54-6,1,7,c2,c2_small_toaster,c2_small_toaster,toaster,R,kitchen,0,misscaled,c2_small_toaster_R.png,small,m,1,1230,7,1,c2_small_toaster_R.png,234080,2016311,24,Woman
900160,OSSe5,v2,jsons/s3.json,-0.108237887,1364,651,1364,768,9/2/23,10-54-6,1,8,k10,k10_small_pot,k10_small_pot,pot,L,kitchen,1,misscaled,k10_small_pot_L.png,small,c,1,1394,8,1,k10_small_pot_L.png,234080,2016311,24,Woman
900160,OSSe5,v2,jsons/s3.json,0.6376757792218838,1364,651,1364,768,9/2/23,10-54-6,1,9,k2,k2_large_toaster,k2_large_toaster,toaster,L,kitchen,1,scaled,k2_large_toaster_L.png,large,c,1,1595,9,5,k2_large_toaster_L.png,234080,2016311,24,Woman
900160,OSSe5,v2,jsons/s3.json,-1.852414121,1364,651,1364,768,9/2/23,10-54-6,1,10,k1,k1_large_spoon,k1_large_spoon,spoon,L,kitchen,1,misscaled,k1_large_spoon_L.png,large,c,1,924,10,7,k1_large_spoon_L.png,234080,2016311,24,Woman
900160,OSSe5,v2,jsons/s3.json,-0.627779744,1364,651,1364,768,9/2/23,10-54-6,1,11,k0,k0_large_sponge,k0_large_sponge,sponge,R,kitchen,1,misscaled,k0_large_sponge_R.png,large,m,1,1254,11,7,k0_large_sponge_R.png,234080,2016311,24,Woman
900160,OSSe5,v2,jsons/s3.json,-0.338320709,1364,651,1364,768,9/2/23,10-54-6,1,12,c4,c4_large_clipboard,c4_large_clipboard,clipboard,R,classroom,1,scaled,c4_large_clipboard_R.png,large,m,1,1332,12,7,c4_large_clipboard_R.png,234080,2016311,24,Woman
900160,OSSe5,v2,jsons/s3.json,-0.390274895,1364,651,1364,768,9/2/23,10-54-6,1,13,k8,k8_small_laptop,k8_small_laptop,laptop,L,classroom,0,misscaled,k8_small_laptop_L.png,small,c,1,1318,13,1,k8_small_laptop_L.png,234080,2016311,24,Woman
900160,OSSe5,v2,jsons/s3.json,0.8120934026365989,1364,651,1364,768,9/2/23,10-54-6,1,14,c11,c11_large_saltshaker,c11_large_saltshaker,saltshaker,L,kitchen,0,misscaled,c11_large_saltshaker_L.png,large,c,1,1642,14,7,c11_large_saltshaker_L.png,234080,2016311,24,Woman
900160,OSSe5,v2,jsons/s3.json,1.0273321719568858,1364,651,1364,768,9/2/23,10-54-6,1,15,k7,k7_small_kettle,k7_small_kettle,kettle,R,kitchen,1,misscaled,k7_small_kettle_R.png,small,m,1,1700,15,1,k7_small_kettle_R.png,234080,2016311,24,Woman
900160,OSSe5,v2,jsons/s3.json,2.329897827671035,1364,651,1364,768,9/2/23,10-54-6,1,16,c6,c6_large_flashdrive,c6_large_flashdrive,flashdrive,L,classroom,1,misscaled,c6_large_flashdrive_L.png,large,c,1,2051,16,7,c6_large_flashdrive_L.png,234080,2016311,24,Woman
900160,OSSe5,v2,jsons/s3.json,-0.85044054,1364,651,1364,768,9/2/23,10-54-6,1,17,c1,c1_small_spoon,c1_small_spoon,spoon,R,kitchen,0,scaled,c1_small_spoon_R.png,small,m,1,1194,17,1,c1_small_spoon_R.png,234080,2016311,24,Woman
900160,OSSe5,v2,jsons/s3.json,-0.31605463,1364,651,1364,768,9/2/23,10-54-6,1,18,k11,k11_small_saltshaker,k11_small_saltshaker,saltshaker,R,kitchen,1,scaled,k11_small_saltshaker_R.png,small,m,1,1338,18,1,k11_small_saltshaker_R.png,234080,2016311,24,Woman
900160,OSSe5,v2,jsons/s3.json,0.3148176252414536,1364,651,1364,768,9/2/23,10-54-6,1,19,c9,c9_large_notebook,c9_large_notebook,notebook,L,classroom,1,scaled,c9_large_notebook_L.png,large,c,1,1508,19,4,c9_large_notebook_L.png,234080,2016311,24,Woman
900160,OSSe5,v2,jsons/s3.json,1.2982361402393157,1364,651,1364,768,9/2/23,10-54-6,1,20,k6,k6_small_flashdrive,k6_small_flashdrive,flashdrive,R,classroom,0,scaled,k6_small_flashdrive_R.png,small,m,1,1773,20,5,k6_small_flashdrive_R.png,234080,2016311,24,Woman
900160,OSSe5,v2,jsons/s3.json,0.10700088244945262,1364,651,1364,768,9/2/23,10-54-6,1,21,c8,c8_large_laptop,c8_large_laptop,laptop,R,classroom,1,scaled,c8_large_laptop_R.png,large,m,1,1452,21,4,c8_large_laptop_R.png,234080,2016311,24,Woman
900160,OSSe5,v2,jsons/s3.json,-0.590669611,1364,651,1364,768,9/2/23,10-54-6,1,22,c0,c0_small_sponge,c0_small_sponge,sponge,R,kitchen,0,scaled,c0_small_sponge_R.png,small,m,1,1264,22,1,c0_small_sponge_R.png,234080,2016311,24,Woman
900160,OSSe5,v2,jsons/s3.json,-0.776220274,1364,651,1364,768,9/2/23,10-54-6,1,23,k9,k9_small_notebook,k9_small_notebook,notebook,L,classroom,0,misscaled,k9_small_notebook_L.png,small,c,1,1214,23,3,k9_small_notebook_L.png,234080,2016311,24,Woman
149238,OSSe5,v2,jsons/s19.json,-0.719381862,1364,651,1364,768,9/2/23,10/6/36,1,0,k11,k11_large_kettle,k11_large_kettle,kettle,R,kitchen,1,scaled,k11_large_kettle_R.png,large,m,1,1305,0,4,k11_large_kettle_R.png,385719,429391,24,Woman
149238,OSSe5,v2,jsons/s19.json,-0.276153644,1364,651,1364,768,9/2/23,10/6/36,1,1,k4,k4_small_sponge,k4_small_sponge,sponge,L,kitchen,1,scaled,k4_small_sponge_L.png,small,c,1,1476,1,6,k4_small_sponge_L.png,385719,429391,24,Woman
149238,OSSe5,v2,jsons/s19.json,0.076355349,1364,651,1364,768,9/2/23,10/6/36,1,2,c11,c11_small_kettle,c11_small_kettle,kettle,R,kitchen,0,misscaled,c11_small_kettle_R.png,small,m,1,1612,2,1,c11_small_kettle_R.png,385719,429391,24,Woman
149238,OSSe5,v2,jsons/s19.json,-1.34664051,1364,651,1364,768,9/2/23,10/6/36,1,3,k1,k1_small_notebook,k1_small_notebook,notebook,L,classroom,0,misscaled,k1_small_notebook_L.png,small,c,1,1063,3,1,k1_small_notebook_L.png,385719,429391,24,Woman
149238,OSSe5,v2,jsons/s19.json,-0.732341751,1364,651,1364,768,9/2/23,10/6/36,1,4,c4,c4_large_sponge,c4_large_sponge,sponge,L,kitchen,0,misscaled,c4_large_sponge_L.png,large,c,1,1300,4,7,c4_large_sponge_L.png,385719,429391,24,Woman
149238,OSSe5,v2,jsons/s19.json,-0.361688914,1364,651,1364,768,9/2/23,10/6/36,1,5,c3,c3_large_saltshaker,c3_large_saltshaker,saltshaker,R,kitchen,0,misscaled,c3_large_saltshaker_R.png,large,m,1,1443,5,7,c3_large_saltshaker_R.png,385719,429391,24,Woman
149238,OSSe5,v2,jsons/s19.json,-0.001403988,1364,651,1364,768,9/2/23,10/6/36,1,6,c6,c6_large_toaster,c6_large_toaster,toaster,R,kitchen,0,scaled,c6_large_toaster_R.png,large,m,1,1582,6,4,c6_large_toaster_R.png,385719,429391,24,Woman
149238,OSSe5,v2,jsons/s19.json,-0.776405376,1364,651,1364,768,9/2/23,10/6/36,1,8,k8,k8_large_clipboard,k8_large_clipboard,clipboard,L,classroom,0,scaled,k8_large_clipboard_L.png,large,c,1,1283,8,5,k8_large_clipboard_L.png,385719,429391,24,Woman
149238,OSSe5,v2,jsons/s19.json,-0.022139811,1364,651,1364,768,9/2/23,10/6/36,1,9,k10,k10_large_flashdrive,k10_large_flashdrive,flashdrive,R,classroom,0,misscaled,k10_large_flashdrive_R.png,large,m,1,1574,9,7,k10_large_flashdrive_R.png,385719,429391,24,Woman
149238,OSSe5,v2,jsons/s19.json,-0.810101088,1364,651,1364,768,9/2/23,10/6/36,1,10,c2,c2_large_pot,c2_large_pot,pot,R,kitchen,0,scaled,c2_large_pot_R.png,large,m,1,1270,10,4,c2_large_pot_R.png,385719,429391,24,Woman
149238,OSSe5,v2,jsons/s19.json,-0.688278127,1364,651,1364,768,9/2/23,10/6/36,1,11,k6,k6_small_toaster,k6_small_toaster,toaster,L,kitchen,1,misscaled,k6_small_toaster_L.png,small,c,1,1317,11,1,k6_small_toaster_L.png,385719,429391,24,Woman
149238,OSSe5,v2,jsons/s19.json,-0.094715192,1364,651,1364,768,9/2/23,10/6/36,1,12,k3,k3_small_saltshaker,k3_small_saltshaker,saltshaker,L,kitchen,1,scaled,k3_small_saltshaker_L.png,small,c,1,1546,12,4,k3_small_saltshaker_L.png,385719,429391,24,Woman
149238,OSSe5,v2,jsons/s19.json,0.4858878542798734,1364,651,1364,768,9/2/23,10/6/36,1,13,k7,k7_large_binderclip,k7_large_binderclip,binderclip,R,classroom,0,misscaled,k7_large_binderclip_R.png,large,m,1,1770,13,7,k7_large_binderclip_R.png,385719,429391,24,Woman
149238,OSSe5,v2,jsons/s19.json,-1.030419208,1364,651,1364,768,9/2/23,10/6/36,1,14,c1,c1_large_notebook,c1_large_notebook,notebook,L,classroom,1,scaled,c1_large_notebook_L.png,large,c,1,1185,14,4,c1_large_notebook_L.png,385719,429391,24,Woman
149238,OSSe5,v2,jsons/s19.json,-0.843796801,1364,651,1364,768,9/2/23,10/6/36,1,15,k9,k9_large_eraser,k9_large_eraser,eraser,R,classroom,0,misscaled,k9_large_eraser_R.png,large,m,1,1257,15,7,k9_large_eraser_R.png,385719,429391,24,Woman
149238,OSSe5,v2,jsons/s19.json,-0.302073423,1364,651,1364,768,9/2/23,10/6/36,1,16,c10,c10_small_flashdrive,c10_small_flashdrive,flashdrive,R,classroom,1,scaled,c10_small_flashdrive_R.png,small,m,1,1466,16,4,c10_small_flashdrive_R.png,385719,429391,24,Woman
149238,OSSe5,v2,jsons/s19.json,-0.31762529,1364,651,1364,768,9/2/23,10/6/36,1,17,k0,k0_small_laptop,k0_small_laptop,laptop,L,classroom,0,misscaled,k0_small_laptop_L.png,small,c,1,1460,17,1,k0_small_laptop_L.png,385719,429391,24,Woman
149238,OSSe5,v2,jsons/s19.json,-0.382424737,1364,651,1364,768,9/2/23,10/6/36,1,18,c0,c0_large_laptop,c0_large_laptop,laptop,L,classroom,1,scaled,c0_large_laptop_L.png,large,c,1,1435,18,4,c0_large_laptop_L.png,385719,429391,24,Woman
149238,OSSe5,v2,jsons/s19.json,0.9524438735039352,1364,651,1364,768,9/2/23,10/6/36,1,19,c8,c8_small_clipboard,c8_small_clipboard,clipboard,R,classroom,1,misscaled,c8_small_clipboard_R.png,small,m,1,1950,19,3,c8_small_clipboard_R.png,385719,429391,24,Woman
149238,OSSe5,v2,jsons/s19.json,1.9218436023361525,1364,651,1364,768,9/2/23,10/6/36,1,20,k2,k2_small_pot,k2_small_pot,pot,L,kitchen,1,misscaled,k2_small_pot_L.png,small,c,1,2324,20,4,k2_small_pot_L.png,385719,429391,24,Woman
149238,OSSe5,v2,jsons/s19.json,1.2868090206145129,1364,651,1364,768,9/2/23,10/6/36,1,21,c5,c5_large_spoon,c5_large_spoon,spoon,R,kitchen,0,misscaled,c5_large_spoon_R.png,large,m,1,2079,21,7,c5_large_spoon_R.png,385719,429391,24,Woman
149238,OSSe5,v2,jsons/s19.json,0.26556973409073314,1364,651,1364,768,9/2/23,10/6/36,1,22,c7,c7_small_binderclip,c7_small_binderclip,binderclip,R,classroom,1,scaled,c7_small_binderclip_R.png,small,m,1,1685,22,2,c7_small_binderclip_R.png,385719,429391,24,Woman
149238,OSSe5,v2,jsons/s19.json,2.9975144244360727,1364,651,1364,768,9/2/23,10/6/36,1,23,k5,k5_small_spoon,k5_small_spoon,spoon,L,kitchen,1,scaled,k5_small_spoon_L.png,small,c,1,2739,23,7,k5_small_spoon_L.png,385719,429391,24,Woman
358583,OSSe5,v2,jsons/s7.json,-0.119464341,1366,625,1366,768,9/2/23,11/19/56,1,0,k1,k1_large_notebook,k1_large_notebook,notebook,R,classroom,0,scaled,k1_large_notebook_R.png,large,m,1,1568,0,4,k1_large_notebook_R.png,264701,321114,30,Man
358583,OSSe5,v2,jsons/s7.json,-0.086424267,1366,625,1366,768,9/2/23,11/19/56,1,1,k8,k8_small_clipboard,k8_small_clipboard,clipboard,L,classroom,0,misscaled,k8_small_clipboard_L.png,small,c,1,1586,1,3,k8_small_clipboard_L.png,264701,321114,30,Man
358583,OSSe5,v2,jsons/s7.json,1.6022906113061537,1366,625,1366,768,9/2/23,11/19/56,1,2,k11,k11_small_kettle,k11_small_kettle,kettle,R,kitchen,1,misscaled,k11_small_kettle_R.png,small,m,1,2506,2,5,k11_small_kettle_R.png,264701,321114,30,Man
358583,OSSe5,v2,jsons/s7.json,0.23663423156951036,1366,625,1366,768,9/2/23,11/19/56,1,3,c3,c3_small_saltshaker,c3_small_saltshaker,saltshaker,L,kitchen,0,scaled,c3_small_saltshaker_L.png,small,c,1,1762,3,3,c3_small_saltshaker_L.png,264701,321114,30,Man
358583,OSSe5,v2,jsons/s7.json,-0.493918509,1366,625,1366,768,9/2/23,11/19/56,1,4,k7,k7_small_binderclip,k7_small_binderclip,binderclip,L,classroom,0,scaled,k7_small_binderclip_L.png,small,c,1,1364,4,4,k7_small_binderclip_L.png,264701,321114,30,Man
358583,OSSe5,v2,jsons/s7.json,-0.17269557,1366,625,1366,768,9/2/23,11/19/56,1,6,k3,k3_large_saltshaker,k3_large_saltshaker,saltshaker,L,kitchen,1,misscaled,k3_large_saltshaker_L.png,large,c,1,1539,6,5,k3_large_saltshaker_L.png,264701,321114,30,Man
358583,OSSe5,v2,jsons/s7.json,0.20726527716657175,1366,625,1366,768,9/2/23,11/19/56,1,7,c0,c0_small_laptop,c0_small_laptop,laptop,L,classroom,1,misscaled,c0_small_laptop_L.png,small,c,1,1746,7,2,c0_small_laptop_L.png,264701,321114,30,Man
358583,OSSe5,v2,jsons/s7.json,-0.774759136,1366,625,1366,768,9/2/23,11/19/56,1,8,c11,c11_large_kettle,c11_large_kettle,kettle,L,kitchen,0,scaled,c11_large_kettle_L.png,large,c,1,1211,8,3,c11_large_kettle_L.png,264701,321114,30,Man
358583,OSSe5,v2,jsons/s7.json,-0.996861853,1366,625,1366,768,9/2/23,11/19/56,1,9,c7,c7_large_binderclip,c7_large_binderclip,binderclip,R,classroom,1,misscaled,c7_large_binderclip_R.png,large,m,1,1090,9,4,c7_large_binderclip_R.png,264701,321114,30,Man
358583,OSSe5,v2,jsons/s7.json,-0.381949371,1366,625,1366,768,9/2/23,11/19/56,1,11,c9,c9_large_eraser,c9_large_eraser,eraser,R,classroom,1,misscaled,c9_large_eraser_R.png,large,m,1,1425,11,5,c9_large_eraser_R.png,264701,321114,30,Man
358583,OSSe5,v2,jsons/s7.json,0.35778116848163194,1366,625,1366,768,9/2/23,11/19/56,1,12,k2,k2_large_pot,k2_large_pot,pot,L,kitchen,1,scaled,k2_large_pot_L.png,large,c,1,1828,12,2,k2_large_pot_L.png,264701,321114,30,Man
358583,OSSe5,v2,jsons/s7.json,-0.363593774,1366,625,1366,768,9/2/23,11/19/56,1,13,k0,k0_large_laptop,k0_large_laptop,laptop,R,classroom,0,scaled,k0_large_laptop_R.png,large,m,1,1435,13,3,k0_large_laptop_R.png,264701,321114,30,Man
358583,OSSe5,v2,jsons/s7.json,0.058584946,1366,625,1366,768,9/2/23,11/19/56,1,14,c5,c5_small_spoon,c5_small_spoon,spoon,R,kitchen,0,scaled,c5_small_spoon_R.png,small,m,1,1665,14,4,c5_small_spoon_R.png,264701,321114,30,Man
358583,OSSe5,v2,jsons/s7.json,-0.17269557,1366,625,1366,768,9/2/23,11/19/56,1,16,k4,k4_large_sponge,k4_large_sponge,sponge,R,kitchen,1,misscaled,k4_large_sponge_R.png,large,m,1,1539,16,4,k4_large_sponge_R.png,264701,321114,30,Man
358583,OSSe5,v2,jsons/s7.json,1.1764407724635444,1366,625,1366,768,9/2/23,11/19/56,1,17,k6,k6_large_toaster,k6_large_toaster,toaster,L,kitchen,1,scaled,k6_large_toaster_L.png,large,c,1,2274,17,4,k6_large_toaster_L.png,264701,321114,30,Man
358583,OSSe5,v2,jsons/s7.json,-0.029521918,1366,625,1366,768,9/2/23,11/19/56,1,18,c6,c6_small_toaster,c6_small_toaster,toaster,L,kitchen,0,misscaled,c6_small_toaster_L.png,small,c,1,1617,18,5,c6_small_toaster_L.png,264701,321114,30,Man
358583,OSSe5,v2,jsons/s7.json,3.661788539,1366,625,1366,768,9/2/23,11/19/56,1,19,k9,k9_small_eraser,k9_small_eraser,eraser,L,classroom,0,scaled,k9_small_eraser_L.png,small,c,1,3628,19,2,k9_small_eraser_L.png,264701,321114,30,Man
358583,OSSe5,v2,jsons/s7.json,-0.837168164,1366,625,1366,768,9/2/23,11/19/56,1,20,k10,k10_small_flashdrive,k10_small_flashdrive,flashdrive,R,classroom,0,scaled,k10_small_flashdrive_R.png,small,m,1,1177,20,4,k10_small_flashdrive_R.png,264701,321114,30,Man
358583,OSSe5,v2,jsons/s7.json,-0.422331683,1366,625,1366,768,9/2/23,11/19/56,1,21,c2,c2_small_pot,c2_small_pot,pot,L,kitchen,0,misscaled,c2_small_pot_L.png,small,c,1,1403,21,5,c2_small_pot_L.png,264701,321114,30,Man
358583,OSSe5,v2,jsons/s7.json,-0.787608053,1366,625,1366,768,9/2/23,11/19/56,1,22,c4,c4_small_sponge,c4_small_sponge,sponge,R,kitchen,0,scaled,c4_small_sponge_R.png,small,m,1,1204,22,3,c4_small_sponge_R.png,264701,321114,30,Man
358583,OSSe5,v2,jsons/s7.json,-0.618736565,1366,625,1366,768,9/2/23,11/19/56,1,23,c10,c10_large_flashdrive,c10_large_flashdrive,flashdrive,R,classroom,1,misscaled,c10_large_flashdrive_R.png,large,m,1,1296,23,6,c10_large_flashdrive_R.png,264701,321114,30,Man
477007,OSSe5,v2,jsons/s2.json,2.6993562453648665,1366,619,1366,768,9/2/23,10-59-22,1,0,c3,c3_large_clipboard,c3_large_clipboard,clipboard,R,classroom,1,scaled,c3_large_clipboard_R.png,large,m,1,2360,0,4,c3_large_clipboard_R.png,231733,433361,56,Man
477007,OSSe5,v2,jsons/s2.json,0.5612244704778893,1366,619,1366,768,9/2/23,10-59-22,1,1,k7,k7_small_laptop,k7_small_laptop,laptop,L,classroom,0,misscaled,k7_small_laptop_L.png,small,c,1,1599,1,1,k7_small_laptop_L.png,231733,433361,56,Man
477007,OSSe5,v2,jsons/s2.json,-0.542961847,1366,619,1366,768,9/2/23,10-59-22,1,2,c1,c1_small_toaster,c1_small_toaster,toaster,R,kitchen,0,misscaled,c1_small_toaster_R.png,small,m,1,1206,2,1,c1_small_toaster_R.png,231733,433361,56,Man
477007,OSSe5,v2,jsons/s2.json,-0.90259505,1366,619,1366,768,9/2/23,10-59-22,1,3,k11,k11_small_sponge,k11_small_sponge,sponge,R,kitchen,1,scaled,k11_small_sponge_R.png,small,m,1,1078,3,4,k11_small_sponge_R.png,231733,433361,56,Man
477007,OSSe5,v2,jsons/s2.json,-0.610393072,1366,619,1366,768,9/2/23,10-59-22,1,4,k0,k0_large_spoon,k0_large_spoon,spoon,L,kitchen,1,misscaled,k0_large_spoon_L.png,large,c,1,1182,4,4,k0_large_spoon_L.png,231733,433361,56,Man
477007,OSSe5,v2,jsons/s2.json,-0.020369849,1366,619,1366,768,9/2/23,10-59-22,1,5,c6,c6_large_kettle,c6_large_kettle,kettle,L,kitchen,0,scaled,c6_large_kettle_L.png,large,c,1,1392,5,3,c6_large_kettle_L.png,231733,433361,56,Man
477007,OSSe5,v2,jsons/s2.json,-0.219853891,1366,619,1366,768,9/2/23,10-59-22,1,6,k8,k8_small_notebook,k8_small_notebook,notebook,R,classroom,0,misscaled,k8_small_notebook_R.png,small,m,1,1321,6,3,k8_small_notebook_R.png,231733,433361,56,Man
477007,OSSe5,v2,jsons/s2.json,-0.318191095,1366,619,1366,768,9/2/23,10-59-22,1,7,k9,k9_small_pot,k9_small_pot,pot,L,kitchen,1,misscaled,k9_small_pot_L.png,small,c,1,1286,7,1,k9_small_pot_L.png,231733,433361,56,Man
477007,OSSe5,v2,jsons/s2.json,-0.641299051,1366,619,1366,768,9/2/23,10-59-22,1,8,k5,k5_small_flashdrive,k5_small_flashdrive,flashdrive,R,classroom,0,scaled,k5_small_flashdrive_R.png,small,m,1,1171,8,4,k5_small_flashdrive_R.png,231733,433361,56,Man
477007,OSSe5,v2,jsons/s2.json,-0.416528299,1366,619,1366,768,9/2/23,10-59-22,1,9,c11,c11_large_sponge,c11_large_sponge,sponge,R,kitchen,0,misscaled,c11_large_sponge_R.png,large,m,1,1251,9,7,c11_large_sponge_R.png,231733,433361,56,Man
477007,OSSe5,v2,jsons/s2.json,-0.55139075,1366,619,1366,768,9/2/23,10-59-22,1,10,c0,c0_small_spoon,c0_small_spoon,spoon,L,kitchen,0,scaled,c0_small_spoon_L.png,small,c,1,1203,10,4,c0_small_spoon_L.png,231733,433361,56,Man
477007,OSSe5,v2,jsons/s2.json,0.8309493724347221,1366,619,1366,768,9/2/23,10-59-22,1,11,c5,c5_large_flashdrive,c5_large_flashdrive,flashdrive,R,classroom,1,misscaled,c5_large_flashdrive_R.png,large,m,1,1695,11,5,c5_large_flashdrive_R.png,231733,433361,56,Man
477007,OSSe5,v2,jsons/s2.json,1.7356516477482655,1366,619,1366,768,9/2/23,10-59-22,1,12,k2,k2_small_binderclip,k2_small_binderclip,binderclip,R,classroom,0,scaled,k2_small_binderclip_R.png,small,m,1,2017,12,4,k2_small_binderclip_R.png,231733,433361,56,Man
477007,OSSe5,v2,jsons/s2.json,0.4207427507087054,1366,619,1366,768,9/2/23,10-59-22,1,13,c8,c8_large_notebook,c8_large_notebook,notebook,L,classroom,1,scaled,c8_large_notebook_L.png,large,c,1,1549,13,4,c8_large_notebook_L.png,231733,433361,56,Man
477007,OSSe5,v2,jsons/s2.json,1.6878878630267433,1366,619,1366,768,9/2/23,10-59-22,1,14,c9,c9_large_pot,c9_large_pot,pot,L,kitchen,0,scaled,c9_large_pot_L.png,large,c,1,2000,14,4,c9_large_pot_L.png,231733,433361,56,Man
477007,OSSe5,v2,jsons/s2.json,-0.464292084,1366,619,1366,768,9/2/23,10-59-22,1,15,c4,c4_large_eraser,c4_large_eraser,eraser,L,classroom,1,misscaled,c4_large_eraser_L.png,large,c,1,1234,15,5,c4_large_eraser_L.png,231733,433361,56,Man
477007,OSSe5,v2,jsons/s2.json,-0.349097074,1366,619,1366,768,9/2/23,10-59-22,1,16,k4,k4_small_eraser,k4_small_eraser,eraser,R,classroom,0,scaled,k4_small_eraser_R.png,small,m,1,1275,16,6,k4_small_eraser_R.png,231733,433361,56,Man
477007,OSSe5,v2,jsons/s2.json,0.181923827,1366,619,1366,768,9/2/23,10-59-22,1,17,c10,c10_large_saltshaker,c10_large_saltshaker,saltshaker,L,kitchen,0,misscaled,c10_large_saltshaker_L.png,large,c,1,1464,17,7,c10_large_saltshaker_L.png,231733,433361,56,Man
477007,OSSe5,v2,jsons/s2.json,-1.172319951,1366,619,1366,768,9/2/23,10-59-22,1,18,k1,k1_large_toaster,k1_large_toaster,toaster,R,kitchen,1,scaled,k1_large_toaster_R.png,large,m,1,982,18,4,k1_large_toaster_R.png,231733,433361,56,Man
477007,OSSe5,v2,jsons/s2.json,-0.874498706,1366,619,1366,768,9/2/23,10-59-22,1,19,c2,c2_large_binderclip,c2_large_binderclip,binderclip,L,classroom,1,misscaled,c2_large_binderclip_L.png,large,c,1,1088,19,4,c2_large_binderclip_L.png,231733,433361,56,Man
477007,OSSe5,v2,jsons/s2.json,0.6342749647578648,1366,619,1366,768,9/2/23,10-59-22,1,20,k3,k3_small_clipboard,k3_small_clipboard,clipboard,R,classroom,0,misscaled,k3_small_clipboard_R.png,small,m,1,1625,20,3,k3_small_clipboard_R.png,231733,433361,56,Man
477007,OSSe5,v2,jsons/s2.json,-1.009361157,1366,619,1366,768,9/2/23,10-59-22,1,21,k6,k6_small_kettle,k6_small_kettle,kettle,L,kitchen,1,misscaled,k6_small_kettle_L.png,small,c,1,1040,21,1,k6_small_kettle_L.png,231733,433361,56,Man
477007,OSSe5,v2,jsons/s2.json,-1.329659478,1366,619,1366,768,9/2/23,10-59-22,1,22,k10,k10_small_saltshaker,k10_small_saltshaker,saltshaker,R,kitchen,1,scaled,k10_small_saltshaker_R.png,small,m,1,926,22,4,k10_small_saltshaker_R.png,231733,433361,56,Man
405784,OSSe5,v2,jsons/s1.json,-0.592031807,1366,651,1366,768,9/2/23,10/31/57,1,0,c8,c8_large_pot,c8_large_pot,pot,L,kitchen,0,scaled,c8_large_pot_L.png,large,c,1,1240,0,4,c8_large_pot_L.png,276158,323665,25,Man
405784,OSSe5,v2,jsons/s1.json,-0.932871708,1366,651,1366,768,9/2/23,10/31/57,1,1,c7,c7_large_notebook,c7_large_notebook,notebook,L,classroom,1,scaled,c7_large_notebook_L.png,large,c,1,1016,1,4,c7_large_notebook_L.png,276158,323665,25,Man
405784,OSSe5,v2,jsons/s1.json,-0.315099388,1366,651,1366,768,9/2/23,10/31/57,1,2,k1,k1_small_binderclip,k1_small_binderclip,binderclip,R,classroom,0,scaled,k1_small_binderclip_R.png,small,m,1,1422,2,4,k1_small_binderclip_R.png,276158,323665,25,Man
405784,OSSe5,v2,jsons/s1.json,-0.935914922,1366,651,1366,768,9/2/23,10/31/57,1,3,c3,c3_large_eraser,c3_large_eraser,eraser,L,classroom,1,misscaled,c3_large_eraser_L.png,large,c,1,1014,3,5,c3_large_eraser_L.png,276158,323665,25,Man
405784,OSSe5,v2,jsons/s1.json,-0.777667825,1366,651,1366,768,9/2/23,10/31/57,1,4,k10,k10_small_sponge,k10_small_sponge,sponge,R,kitchen,1,scaled,k10_small_sponge_R.png,small,m,1,1118,4,3,k10_small_sponge_R.png,276158,323665,25,Man
405784,OSSe5,v2,jsons/s1.json,-0.147722651,1366,651,1366,768,9/2/23,10/31/57,1,5,c6,c6_large_laptop,c6_large_laptop,laptop,R,classroom,1,scaled,c6_large_laptop_R.png,large,m,1,1532,5,4,c6_large_laptop_R.png,276158,323665,25,Man
405784,OSSe5,v2,jsons/s1.json,-0.222281379,1366,651,1366,768,9/2/23,10/31/57,1,6,k2,k2_small_clipboard,k2_small_clipboard,clipboard,R,classroom,0,misscaled,k2_small_clipboard_R.png,small,m,1,1483,6,3,k2_small_clipboard_R.png,276158,323665,25,Man
405784,OSSe5,v2,jsons/s1.json,-0.865921013,1366,651,1366,768,9/2/23,10/31/57,1,7,c10,c10_large_sponge,c10_large_sponge,sponge,L,kitchen,0,misscaled,c10_large_sponge_L.png,large,c,1,1060,7,4,c10_large_sponge_L.png,276158,323665,25,Man
405784,OSSe5,v2,jsons/s1.json,1.2567203343836495,1366,651,1366,768,9/2/23,10/31/57,1,8,c11,c11_large_spoon,c11_large_spoon,spoon,L,kitchen,0,misscaled,c11_large_spoon_L.png,large,c,1,2455,8,4,c11_large_spoon_L.png,276158,323665,25,Man
405784,OSSe5,v2,jsons/s1.json,-0.103596056,1366,651,1366,768,9/2/23,10/31/57,1,9,k8,k8_small_pot,k8_small_pot,pot,L,kitchen,1,misscaled,k8_small_pot_L.png,small,c,1,1561,9,1,k8_small_pot_L.png,276158,323665,25,Man
405784,OSSe5,v2,jsons/s1.json,0.41983664888954336,1366,651,1366,768,9/2/23,10/31/57,1,10,k4,k4_small_flashdrive,k4_small_flashdrive,flashdrive,R,classroom,0,scaled,k4_small_flashdrive_R.png,small,m,1,1905,10,4,k4_small_flashdrive_R.png,276158,323665,25,Man
405784,OSSe5,v2,jsons/s1.json,-0.062512675,1366,651,1366,768,9/2/23,10/31/57,1,11,c9,c9_large_saltshaker,c9_large_saltshaker,saltshaker,L,kitchen,0,misscaled,c9_large_saltshaker_L.png,large,c,1,1588,11,4,c9_large_saltshaker_L.png,276158,323665,25,Man
405784,OSSe5,v2,jsons/s1.json,1.2080289199549017,1366,651,1366,768,9/2/23,10/31/57,1,12,k7,k7_small_notebook,k7_small_notebook,notebook,R,classroom,0,misscaled,k7_small_notebook_R.png,small,m,1,2423,12,4,k7_small_notebook_R.png,276158,323665,25,Man
405784,OSSe5,v2,jsons/s1.json,2.4648760548969597,1366,651,1366,768,9/2/23,10/31/57,1,13,c0,c0_small_toaster,c0_small_toaster,toaster,R,kitchen,0,misscaled,c0_small_toaster_R.png,small,m,1,3249,13,3,c0_small_toaster_R.png,276158,323665,25,Man
405784,OSSe5,v2,jsons/s1.json,-0.695501063,1366,651,1366,768,9/2/23,10/31/57,1,14,c2,c2_large_clipboard,c2_large_clipboard,clipboard,L,classroom,1,scaled,c2_large_clipboard_L.png,large,c,1,1172,14,4,c2_large_clipboard_L.png,276158,323665,25,Man
405784,OSSe5,v2,jsons/s1.json,-0.671155356,1366,651,1366,768,9/2/23,10/31/57,1,15,k0,k0_large_toaster,k0_large_toaster,toaster,L,kitchen,1,scaled,k0_large_toaster_L.png,large,c,1,1188,15,4,k0_large_toaster_L.png,276158,323665,25,Man
405784,OSSe5,v2,jsons/s1.json,2.3446691255259875,1366,651,1366,768,9/2/23,10/31/57,1,16,k5,k5_small_kettle,k5_small_kettle,kettle,R,kitchen,1,misscaled,k5_small_kettle_R.png,small,m,1,3170,16,3,k5_small_kettle_R.png,276158,323665,25,Man
405784,OSSe5,v2,jsons/s1.json,1.1106460910974054,1366,651,1366,768,9/2/23,10/31/57,1,17,c4,c4_large_flashdrive,c4_large_flashdrive,flashdrive,R,classroom,1,misscaled,c4_large_flashdrive_R.png,large,m,1,2359,17,7,c4_large_flashdrive_R.png,276158,323665,25,Man
405784,OSSe5,v2,jsons/s1.json,-0.837010486,1366,651,1366,768,9/2/23,10/31/57,1,18,k3,k3_small_eraser,k3_small_eraser,eraser,R,classroom,0,scaled,k3_small_eraser_R.png,small,m,1,1079,18,4,k3_small_eraser_R.png,276158,323665,25,Man
405784,OSSe5,v2,jsons/s1.json,-0.744192477,1366,651,1366,768,9/2/23,10/31/57,1,19,k11,k11_small_spoon,k11_small_spoon,spoon,L,kitchen,1,scaled,k11_small_spoon_L.png,small,c,1,1140,19,4,k11_small_spoon_L.png,276158,323665,25,Man
405784,OSSe5,v2,jsons/s1.json,0.00443802,1366,651,1366,768,9/2/23,10/31/57,1,20,k6,k6_small_laptop,k6_small_laptop,laptop,R,classroom,0,misscaled,k6_small_laptop_R.png,small,m,1,1632,20,1,k6_small_laptop_R.png,276158,323665,25,Man
405784,OSSe5,v2,jsons/s1.json,0.27071919220150265,1366,651,1366,768,9/2/23,10/31/57,1,21,k9,k9_small_saltshaker,k9_small_saltshaker,saltshaker,R,kitchen,1,scaled,k9_small_saltshaker_R.png,small,m,1,1807,21,4,k9_small_saltshaker_R.png,276158,323665,25,Man
405784,OSSe5,v2,jsons/s1.json,-1.02873293,1366,651,1366,768,9/2/23,10/31/57,1,22,c5,c5_large_kettle,c5_large_kettle,kettle,L,kitchen,0,scaled,c5_large_kettle_L.png,large,c,1,953,22,4,c5_large_kettle_L.png,276158,323665,25,Man
405784,OSSe5,v2,jsons/s1.json,-0.147722651,1366,651,1366,768,9/2/23,10/31/57,1,23,c1,c1_large_binderclip,c1_large_binderclip,binderclip,L,classroom,1,misscaled,c1_large_binderclip_L.png,large,c,1,1532,23,4,c1_large_binderclip_L.png,276158,323665,25,Man
268975,OSSe5,v2,jsons/s22.json,-0.269985161,1366,651,1366,768,9/2/23,10/23/47,1,0,k5,k5_small_pot,k5_small_pot,pot,L,kitchen,1,misscaled,k5_small_pot_L.png,small,c,1,1297,0,3,k5_small_pot_L.png,305042,367576,25,Man
268975,OSSe5,v2,jsons/s22.json,-0.182295442,1366,651,1366,768,9/2/23,10/23/47,1,1,c1,c1_large_flashdrive,c1_large_flashdrive,flashdrive,L,classroom,1,misscaled,c1_large_flashdrive_L.png,large,c,1,1353,1,5,c1_large_flashdrive_L.png,305042,367576,25,Man
268975,OSSe5,v2,jsons/s22.json,-0.193256657,1366,651,1366,768,9/2/23,10/23/47,1,2,k0,k0_small_eraser,k0_small_eraser,eraser,L,classroom,0,scaled,k0_small_eraser_L.png,small,c,1,1346,2,4,k0_small_eraser_L.png,305042,367576,25,Man
268975,OSSe5,v2,jsons/s22.json,-0.561240299,1366,651,1366,768,9/2/23,10/23/47,1,3,c6,c6_large_saltshaker,c6_large_saltshaker,saltshaker,L,kitchen,0,misscaled,c6_large_saltshaker_L.png,large,c,1,1111,3,5,c6_large_saltshaker_L.png,305042,367576,25,Man
268975,OSSe5,v2,jsons/s22.json,-0.514263664,1366,651,1366,768,9/2/23,10/23/47,1,4,c10,c10_small_binderclip,c10_small_binderclip,binderclip,R,classroom,1,scaled,c10_small_binderclip_R.png,small,m,1,1141,4,4,c10_small_binderclip_R.png,305042,367576,25,Man
268975,OSSe5,v2,jsons/s22.json,-0.450062262,1366,651,1366,768,9/2/23,10/23/47,1,5,k1,k1_small_flashdrive,k1_small_flashdrive,flashdrive,R,classroom,0,scaled,k1_small_flashdrive_R.png,small,m,1,1182,5,4,k1_small_flashdrive_R.png,305042,367576,25,Man
268975,OSSe5,v2,jsons/s22.json,-0.8571931,1366,651,1366,768,9/2/23,10/23/47,1,6,c4,c4_large_notebook,c4_large_notebook,notebook,L,classroom,1,scaled,c4_large_notebook_L.png,large,c,1,922,6,5,c4_large_notebook_L.png,305042,367576,25,Man
268975,OSSe5,v2,jsons/s22.json,-0.590992168,1366,651,1366,768,9/2/23,10/23/47,1,7,c0,c0_large_eraser,c0_large_eraser,eraser,R,classroom,1,misscaled,c0_large_eraser_R.png,large,m,1,1092,7,7,c0_large_eraser_R.png,305042,367576,25,Man
268975,OSSe5,v2,jsons/s22.json,-0.309132357,1366,651,1366,768,9/2/23,10/23/47,1,8,k6,k6_small_saltshaker,k6_small_saltshaker,saltshaker,R,kitchen,1,scaled,k6_small_saltshaker_R.png,small,m,1,1272,8,4,k6_small_saltshaker_R.png,305042,367576,25,Man
268975,OSSe5,v2,jsons/s22.json,0.094866705,1366,651,1366,768,9/2/23,10/23/47,1,10,c7,c7_large_sponge,c7_large_sponge,sponge,L,kitchen,0,misscaled,c7_large_sponge_L.png,large,c,1,1530,10,7,c7_large_sponge_L.png,305042,367576,25,Man
268975,OSSe5,v2,jsons/s22.json,0.694601746,1366,651,1366,768,9/2/23,10/23/47,1,11,c11,c11_small_clipboard,c11_small_clipboard,clipboard,R,classroom,1,misscaled,c11_small_clipboard_R.png,small,m,1,1913,11,4,c11_small_clipboard_R.png,305042,367576,25,Man
268975,OSSe5,v2,jsons/s22.json,0.068246612,1366,651,1366,768,9/2/23,10/23/47,1,12,k7,k7_small_sponge,k7_small_sponge,sponge,L,kitchen,1,scaled,k7_small_sponge_L.png,small,c,1,1513,12,4,k7_small_sponge_L.png,305042,367576,25,Man
268975,OSSe5,v2,jsons/s22.json,4.260128350548913,1366,651,1366,768,9/2/23,10/23/47,1,13,k2,k2_small_kettle,k2_small_kettle,kettle,R,kitchen,1,misscaled,k2_small_kettle_R.png,small,m,1,4190,13,3,k2_small_kettle_R.png,305042,367576,25,Man
268975,OSSe5,v2,jsons/s22.json,0.15593633041032712,1366,651,1366,768,9/2/23,10/23/47,1,14,k9,k9_small_toaster,k9_small_toaster,toaster,L,kitchen,1,misscaled,k9_small_toaster_L.png,small,c,1,1569,14,3,k9_small_toaster_L.png,305042,367576,25,Man
268975,OSSe5,v2,jsons/s22.json,-0.61134871,1366,651,1366,768,9/2/23,10/23/47,1,15,k10,k10_large_binderclip,k10_large_binderclip,binderclip,R,classroom,0,misscaled,k10_large_binderclip_R.png,large,m,1,1079,15,5,k10_large_binderclip_R.png,305042,367576,25,Man
268975,OSSe5,v2,jsons/s22.json,-0.79925525,1366,651,1366,768,9/2/23,10/23/47,1,16,c3,c3_large_laptop,c3_large_laptop,laptop,R,classroom,1,scaled,c3_large_laptop_R.png,large,m,1,959,16,4,c3_large_laptop_R.png,305042,367576,25,Man
268975,OSSe5,v2,jsons/s22.json,-0.050760864,1366,651,1366,768,9/2/23,10/23/47,1,17,k3,k3_small_laptop,k3_small_laptop,laptop,L,classroom,0,misscaled,k3_small_laptop_L.png,small,c,1,1437,17,2,k3_small_laptop_L.png,305042,367576,25,Man
268975,OSSe5,v2,jsons/s22.json,0.3313157681270466,1366,651,1366,768,9/2/23,10/23/47,1,18,k11,k11_large_clipboard,k11_large_clipboard,clipboard,R,classroom,0,scaled,k11_large_clipboard_R.png,large,m,1,1681,18,4,k11_large_clipboard_R.png,305042,367576,25,Man
268975,OSSe5,v2,jsons/s22.json,-0.735053849,1366,651,1366,768,9/2/23,10/23/47,1,19,k8,k8_small_spoon,k8_small_spoon,spoon,R,kitchen,1,scaled,k8_small_spoon_R.png,small,m,1,1000,19,4,k8_small_spoon_R.png,305042,367576,25,Man
268975,OSSe5,v2,jsons/s22.json,0.15750221824708352,1366,651,1366,768,9/2/23,10/23/47,1,20,c9,c9_large_toaster,c9_large_toaster,toaster,L,kitchen,0,scaled,c9_large_toaster_L.png,large,c,1,1570,20,4,c9_large_toaster_L.png,305042,367576,25,Man
268975,OSSe5,v2,jsons/s22.json,0.3767265153929829,1366,651,1366,768,9/2/23,10/23/47,1,21,k4,k4_small_notebook,k4_small_notebook,notebook,L,classroom,0,misscaled,k4_small_notebook_L.png,small,c,1,1710,21,3,k4_small_notebook_L.png,305042,367576,25,Man
268975,OSSe5,v2,jsons/s22.json,-0.3936903,1366,651,1366,768,9/2/23,10/23/47,1,22,c5,c5_large_pot,c5_large_pot,pot,R,kitchen,0,scaled,c5_large_pot_R.png,large,m,1,1218,22,4,c5_large_pot_R.png,305042,367576,25,Man
268975,OSSe5,v2,jsons/s22.json,-0.099303387,1366,651,1366,768,9/2/23,10/23/47,1,23,c2,c2_large_kettle,c2_large_kettle,kettle,L,kitchen,0,scaled,c2_large_kettle_L.png,large,c,1,1406,23,4,c2_large_kettle_L.png,305042,367576,25,Man
685197,OSSe5,v2,jsons/s7.json,0.5812525886638756,1366,619,1366,768,9/2/23,8/18/28,1,0,k1,k1_large_notebook,k1_large_notebook,notebook,R,classroom,0,scaled,k1_large_notebook_R.png,large,m,1,1403,0,3,k1_large_notebook_R.png,289466,375805,51,Woman
685197,OSSe5,v2,jsons/s7.json,0.5431584812691923,1366,619,1366,768,9/2/23,8/18/28,1,1,k8,k8_small_clipboard,k8_small_clipboard,clipboard,R,classroom,0,misscaled,k8_small_clipboard_R.png,small,m,1,1393,1,2,k8_small_clipboard_R.png,289466,375805,51,Woman
685197,OSSe5,v2,jsons/s7.json,0.032697442,1366,619,1366,768,9/2/23,8/18/28,1,2,k11,k11_small_kettle,k11_small_kettle,kettle,R,kitchen,1,misscaled,k11_small_kettle_R.png,small,m,1,1259,2,1,k11_small_kettle_R.png,289466,375805,51,Woman
685197,OSSe5,v2,jsons/s7.json,1.0993324492315684,1366,619,1366,768,9/2/23,8/18/28,1,3,c3,c3_small_saltshaker,c3_small_saltshaker,saltshaker,L,kitchen,0,scaled,c3_small_saltshaker_L.png,small,c,1,1539,3,2,c3_small_saltshaker_L.png,289466,375805,51,Woman
685197,OSSe5,v2,jsons/s7.json,-0.515857704,1366,619,1366,768,9/2/23,8/18/28,1,4,k7,k7_small_binderclip,k7_small_binderclip,binderclip,L,classroom,0,scaled,k7_small_binderclip_L.png,small,c,1,1115,4,1,k7_small_binderclip_L.png,289466,375805,51,Woman
685197,OSSe5,v2,jsons/s7.json,1.1717112532814666,1366,619,1366,768,9/2/23,8/18/28,1,5,c8,c8_large_clipboard,c8_large_clipboard,clipboard,R,classroom,1,scaled,c8_large_clipboard_R.png,large,m,1,1558,5,5,c8_large_clipboard_R.png,289466,375805,51,Woman
685197,OSSe5,v2,jsons/s7.json,0.036506853,1366,619,1366,768,9/2/23,8/18/28,1,6,k3,k3_large_saltshaker,k3_large_saltshaker,saltshaker,R,kitchen,1,misscaled,k3_large_saltshaker_R.png,large,m,1,1260,6,2,k3_large_saltshaker_R.png,289466,375805,51,Woman
685197,OSSe5,v2,jsons/s7.json,-0.805372921,1366,619,1366,768,9/2/23,8/18/28,1,7,c0,c0_small_laptop,c0_small_laptop,laptop,L,classroom,1,misscaled,c0_small_laptop_L.png,small,c,1,1039,7,1,c0_small_laptop_L.png,289466,375805,51,Woman
685197,OSSe5,v2,jsons/s7.json,-0.569189455,1366,619,1366,768,9/2/23,8/18/28,1,8,c11,c11_large_kettle,c11_large_kettle,kettle,L,kitchen,0,scaled,c11_large_kettle_L.png,large,c,1,1101,8,4,c11_large_kettle_L.png,289466,375805,51,Woman
685197,OSSe5,v2,jsons/s7.json,0.6117278745796222,1366,619,1366,768,9/2/23,8/18/28,1,9,c7,c7_large_binderclip,c7_large_binderclip,binderclip,L,classroom,1,misscaled,c7_large_binderclip_L.png,large,c,1,1411,9,3,c7_large_binderclip_L.png,289466,375805,51,Woman
685197,OSSe5,v2,jsons/s7.json,-0.736803527,1366,619,1366,768,9/2/23,8/18/28,1,10,c1,c1_small_notebook,c1_small_notebook,notebook,R,classroom,1,misscaled,c1_small_notebook_R.png,small,m,1,1057,10,1,c1_small_notebook_R.png,289466,375805,51,Woman
685197,OSSe5,v2,jsons/s7.json,-1.235836334,1366,619,1366,768,9/2/23,8/18/28,1,11,c9,c9_large_eraser,c9_large_eraser,eraser,R,classroom,1,misscaled,c9_large_eraser_R.png,large,m,1,926,11,5,c9_large_eraser_R.png,289466,375805,51,Woman
685197,OSSe5,v2,jsons/s7.json,0.18507387175916934,1366,619,1366,768,9/2/23,8/18/28,1,12,k2,k2_large_pot,k2_large_pot,pot,R,kitchen,1,scaled,k2_large_pot_R.png,large,m,1,1299,12,4,k2_large_pot_R.png,289466,375805,51,Woman
685197,OSSe5,v2,jsons/s7.json,-0.462525954,1366,619,1366,768,9/2/23,8/18/28,1,13,k0,k0_large_laptop,k0_large_laptop,laptop,R,classroom,0,scaled,k0_large_laptop_R.png,large,m,1,1129,13,3,k0_large_laptop_R.png,289466,375805,51,Woman
685197,OSSe5,v2,jsons/s7.json,-0.683471777,1366,619,1366,768,9/2/23,8/18/28,1,14,c5,c5_small_spoon,c5_small_spoon,spoon,L,kitchen,0,scaled,c5_small_spoon_L.png,small,c,1,1071,14,1,c5_small_spoon_L.png,289466,375805,51,Woman
685197,OSSe5,v2,jsons/s7.json,-1.239645745,1366,619,1366,768,9/2/23,8/18/28,1,15,k5,k5_large_spoon,k5_large_spoon,spoon,R,kitchen,1,misscaled,k5_large_spoon_R.png,large,m,1,925,15,3,k5_large_spoon_R.png,289466,375805,51,Woman
685197,OSSe5,v2,jsons/s7.json,-0.047300183,1366,619,1366,768,9/2/23,8/18/28,1,16,k4,k4_large_sponge,k4_large_sponge,sponge,L,kitchen,1,misscaled,k4_large_sponge_L.png,large,c,1,1238,16,4,k4_large_sponge_L.png,289466,375805,51,Woman
685197,OSSe5,v2,jsons/s7.json,-0.302530703,1366,619,1366,768,9/2/23,8/18/28,1,17,k6,k6_large_toaster,k6_large_toaster,toaster,L,kitchen,1,scaled,k6_large_toaster_L.png,large,c,1,1171,17,4,k6_large_toaster_L.png,289466,375805,51,Woman
685197,OSSe5,v2,jsons/s7.json,0.078410371,1366,619,1366,768,9/2/23,8/18/28,1,18,c6,c6_small_toaster,c6_small_toaster,toaster,L,kitchen,0,misscaled,c6_small_toaster_L.png,small,c,1,1271,18,2,c6_small_toaster_L.png,289466,375805,51,Woman
685197,OSSe5,v2,jsons/s7.json,-1.136791655,1366,619,1366,768,9/2/23,8/18/28,1,19,k9,k9_small_eraser,k9_small_eraser,eraser,R,classroom,0,scaled,k9_small_eraser_R.png,small,m,1,952,19,1,k9_small_eraser_R.png,289466,375805,51,Woman
685197,OSSe5,v2,jsons/s7.json,1.396466486910098,1366,619,1366,768,9/2/23,8/18/28,1,20,k10,k10_small_flashdrive,k10_small_flashdrive,flashdrive,R,classroom,0,scaled,k10_small_flashdrive_R.png,small,m,1,1617,20,3,k10_small_flashdrive_R.png,289466,375805,51,Woman
685197,OSSe5,v2,jsons/s7.json,0.828864287,1366,619,1366,768,9/2/23,8/18/28,1,21,c2,c2_small_pot,c2_small_pot,pot,L,kitchen,0,misscaled,c2_small_pot_L.png,small,c,1,1468,21,1,c2_small_pot_L.png,289466,375805,51,Woman
685197,OSSe5,v2,jsons/s7.json,-1.552017425,1366,619,1366,768,9/2/23,8/18/28,1,22,c4,c4_small_sponge,c4_small_sponge,sponge,L,kitchen,0,scaled,c4_small_sponge_L.png,small,c,1,843,22,1,c4_small_sponge_L.png,289466,375805,51,Woman
685197,OSSe5,v2,jsons/s7.json,2.7221414242450765,1366,619,1366,768,9/2/23,8/18/28,1,23,c10,c10_large_flashdrive,c10_large_flashdrive,flashdrive,L,classroom,1,misscaled,c10_large_flashdrive_L.png,large,c,1,1965,23,1,c10_large_flashdrive_L.png,289466,375805,51,Woman
630119,OSSe5,v2,jsons/s10.json,-0.471061983,1366,619,1366,768,9/2/23,13-22-34,1,0,k8,k8_large_spoon,k8_large_spoon,spoon,R,kitchen,1,misscaled,k8_large_spoon_R.png,large,m,1,1298,0,2,k8_large_spoon_R.png,276933,373490,30,Woman
630119,OSSe5,v2,jsons/s10.json,0.5746438858628955,1366,619,1366,768,9/2/23,13-22-34,1,1,c2,c2_small_kettle,c2_small_kettle,kettle,L,kitchen,0,misscaled,c2_small_kettle_L.png,small,c,1,2056,1,1,c2_small_kettle_L.png,276933,373490,30,Woman
630119,OSSe5,v2,jsons/s10.json,-0.477959779,1366,619,1366,768,9/2/23,13-22-34,1,2,k0,k0_large_eraser,k0_large_eraser,eraser,L,classroom,0,misscaled,k0_large_eraser_L.png,large,c,1,1293,2,7,k0_large_eraser_L.png,276933,373490,30,Woman
630119,OSSe5,v2,jsons/s10.json,-0.712484842,1366,619,1366,768,9/2/23,13-22-34,1,3,k7,k7_large_sponge,k7_large_sponge,sponge,R,kitchen,1,misscaled,k7_large_sponge_R.png,large,m,1,1123,3,5,k7_large_sponge_R.png,276933,373490,30,Woman
630119,OSSe5,v2,jsons/s10.json,0.1607761277141662,1366,619,1366,768,9/2/23,13-22-34,1,4,c1,c1_small_flashdrive,c1_small_flashdrive,flashdrive,L,classroom,1,scaled,c1_small_flashdrive_L.png,small,c,1,1756,4,4,c1_small_flashdrive_L.png,276933,373490,30,Woman
630119,OSSe5,v2,jsons/s10.json,0.6353444903913757,1366,619,1366,768,9/2/23,13-22-34,1,5,c11,c11_large_clipboard,c11_large_clipboard,clipboard,R,classroom,1,scaled,c11_large_clipboard_R.png,large,m,1,2100,5,6,c11_large_clipboard_R.png,276933,373490,30,Woman
630119,OSSe5,v2,jsons/s10.json,-0.770426328,1366,619,1366,768,9/2/23,13-22-34,1,6,c7,c7_small_sponge,c7_small_sponge,sponge,R,kitchen,0,scaled,c7_small_sponge_R.png,small,m,1,1081,6,4,c7_small_sponge_R.png,276933,373490,30,Woman
630119,OSSe5,v2,jsons/s10.json,0.6477605231358377,1366,619,1366,768,9/2/23,13-22-34,1,7,c6,c6_small_saltshaker,c6_small_saltshaker,saltshaker,R,kitchen,0,scaled,c6_small_saltshaker_R.png,small,m,1,2109,7,4,c6_small_saltshaker_R.png,276933,373490,30,Woman
630119,OSSe5,v2,jsons/s10.json,-0.149624691,1366,619,1366,768,9/2/23,13-22-34,1,8,c8,c8_small_spoon,c8_small_spoon,spoon,L,kitchen,0,scaled,c8_small_spoon_L.png,small,c,1,1531,8,4,c8_small_spoon_L.png,276933,373490,30,Woman
630119,OSSe5,v2,jsons/s10.json,-0.068230698,1366,619,1366,768,9/2/23,13-22-34,1,9,c9,c9_small_toaster,c9_small_toaster,toaster,L,kitchen,0,misscaled,c9_small_toaster_L.png,small,c,1,1590,9,2,c9_small_toaster_L.png,276933,373490,30,Woman
630119,OSSe5,v2,jsons/s10.json,-0.71662352,1366,619,1366,768,9/2/23,13-22-34,1,10,k11,k11_small_clipboard,k11_small_clipboard,clipboard,L,classroom,0,misscaled,k11_small_clipboard_L.png,small,c,1,1120,10,2,k11_small_clipboard_L.png,276933,373490,30,Woman
630119,OSSe5,v2,jsons/s10.json,-0.633849968,1366,619,1366,768,9/2/23,13-22-34,1,11,c3,c3_small_laptop,c3_small_laptop,laptop,R,classroom,1,misscaled,c3_small_laptop_R.png,small,m,1,1180,11,1,c3_small_laptop_R.png,276933,373490,30,Woman
630119,OSSe5,v2,jsons/s10.json,0.6422422863605213,1366,619,1366,768,9/2/23,13-22-34,1,12,c4,c4_small_notebook,c4_small_notebook,notebook,R,classroom,1,misscaled,c4_small_notebook_R.png,small,m,1,2105,12,4,c4_small_notebook_R.png,276933,373490,30,Woman
630119,OSSe5,v2,jsons/s10.json,0.000747261,1366,619,1366,768,9/2/23,13-22-34,1,13,c10,c10_large_binderclip,c10_large_binderclip,binderclip,R,classroom,1,misscaled,c10_large_binderclip_R.png,large,m,1,1640,13,7,c10_large_binderclip_R.png,276933,373490,30,Woman
630119,OSSe5,v2,jsons/s10.json,-0.534521706,1366,619,1366,768,9/2/23,13-22-34,1,14,c5,c5_small_pot,c5_small_pot,pot,L,kitchen,0,misscaled,c5_small_pot_L.png,small,c,1,1252,14,2,c5_small_pot_L.png,276933,373490,30,Woman
630119,OSSe5,v2,jsons/s10.json,-0.855958998,1366,619,1366,768,9/2/23,13-22-34,1,15,k5,k5_large_pot,k5_large_pot,pot,R,kitchen,1,scaled,k5_large_pot_R.png,large,m,1,1019,15,4,k5_large_pot_R.png,276933,373490,30,Woman
630119,OSSe5,v2,jsons/s10.json,0.24906791611922846,1366,619,1366,768,9/2/23,13-22-34,1,16,k1,k1_large_flashdrive,k1_large_flashdrive,flashdrive,L,classroom,0,misscaled,k1_large_flashdrive_L.png,large,c,1,1820,16,7,k1_large_flashdrive_L.png,276933,373490,30,Woman
630119,OSSe5,v2,jsons/s10.json,-0.239296038,1366,619,1366,768,9/2/23,13-22-34,1,17,k2,k2_large_kettle,k2_large_kettle,kettle,L,kitchen,1,scaled,k2_large_kettle_L.png,large,c,1,1466,17,4,k2_large_kettle_L.png,276933,373490,30,Woman
630119,OSSe5,v2,jsons/s10.json,0.010404175586794549,1366,619,1366,768,9/2/23,13-22-34,1,18,k4,k4_large_notebook,k4_large_notebook,notebook,R,classroom,0,scaled,k4_large_notebook_R.png,large,m,1,1647,18,7,k4_large_notebook_R.png,276933,373490,30,Woman
630119,OSSe5,v2,jsons/s10.json,-0.700068809,1366,619,1366,768,9/2/23,13-22-34,1,19,k3,k3_large_laptop,k3_large_laptop,laptop,R,classroom,0,scaled,k3_large_laptop_R.png,large,m,1,1132,19,4,k3_large_laptop_R.png,276933,373490,30,Woman
630119,OSSe5,v2,jsons/s10.json,3.7641847419957695,1366,619,1366,768,9/2/23,13-22-34,1,20,k6,k6_large_saltshaker,k6_large_saltshaker,saltshaker,L,kitchen,1,misscaled,k6_large_saltshaker_L.png,large,c,1,4368,20,4,k6_large_saltshaker_L.png,276933,373490,30,Woman
630119,OSSe5,v2,jsons/s10.json,-0.901484452,1366,619,1366,768,9/2/23,13-22-34,1,21,c0,c0_small_eraser,c0_small_eraser,eraser,L,classroom,1,scaled,c0_small_eraser_L.png,small,c,1,986,21,4,c0_small_eraser_L.png,276933,373490,30,Woman
630119,OSSe5,v2,jsons/s10.json,-0.764908091,1366,619,1366,768,9/2/23,13-22-34,1,22,k10,k10_small_binderclip,k10_small_binderclip,binderclip,L,classroom,0,scaled,k10_small_binderclip_L.png,small,c,1,1085,22,4,k10_small_binderclip_L.png,276933,373490,30,Woman
630119,OSSe5,v2,jsons/s10.json,1.3113284953676336,1366,619,1366,768,9/2/23,13-22-34,1,23,k9,k9_large_toaster,k9_large_toaster,toaster,R,kitchen,1,scaled,k9_large_toaster_R.png,large,m,1,2590,23,4,k9_large_toaster_R.png,276933,373490,30,Woman
970977,OSSe5,v2,jsons/s12.json,-1.142008519,1366,651,1366,768,9/2/23,11/17/48,1,0,c11,c11_small_toaster,c11_small_toaster,toaster,L,kitchen,0,misscaled,c11_small_toaster_L.png,small,c,1,1219,0,3,c11_small_toaster_L.png,306815,357930,1992,Woman
970977,OSSe5,v2,jsons/s12.json,-0.721731045,1366,651,1366,768,9/2/23,11/17/48,1,1,c1,c1_small_clipboard,c1_small_clipboard,clipboard,L,classroom,1,misscaled,c1_small_clipboard_L.png,small,c,1,1469,1,1,c1_small_clipboard_L.png,306815,357930,1992,Woman
970977,OSSe5,v2,jsons/s12.json,0.4163803560249537,1366,651,1366,768,9/2/23,11/17/48,1,2,k11,k11_large_toaster,k11_large_toaster,toaster,R,kitchen,1,scaled,k11_large_toaster_R.png,large,m,1,2146,2,6,k11_large_toaster_R.png,306815,357930,1992,Woman
970977,OSSe5,v2,jsons/s12.json,-1.362233916,1366,651,1366,768,9/2/23,11/17/48,1,3,c0,c0_small_binderclip,c0_small_binderclip,binderclip,L,classroom,1,scaled,c0_small_binderclip_L.png,small,c,1,1088,3,3,c0_small_binderclip_L.png,306815,357930,1992,Woman
970977,OSSe5,v2,jsons/s12.json,-1.229426234,1366,651,1366,768,9/2/23,11/17/48,1,4,k0,k0_large_binderclip,k0_large_binderclip,binderclip,L,classroom,0,misscaled,k0_large_binderclip_L.png,large,c,1,1167,4,7,k0_large_binderclip_L.png,306815,357930,1992,Woman
970977,OSSe5,v2,jsons/s12.json,-1.303395069,1366,651,1366,768,9/2/23,11/17/48,1,5,k10,k10_large_spoon,k10_large_spoon,spoon,L,kitchen,1,misscaled,k10_large_spoon_L.png,large,c,1,1123,5,6,k10_large_spoon_L.png,306815,357930,1992,Woman
970977,OSSe5,v2,jsons/s12.json,-0.024070437,1366,651,1366,768,9/2/23,11/17/48,1,6,c4,c4_small_kettle,c4_small_kettle,kettle,L,kitchen,0,misscaled,c4_small_kettle_L.png,small,c,1,1884,6,2,c4_small_kettle_L.png,306815,357930,1992,Woman
970977,OSSe5,v2,jsons/s12.json,-0.286323581,1366,651,1366,768,9/2/23,11/17/48,1,7,k1,k1_large_clipboard,k1_large_clipboard,clipboard,R,classroom,0,scaled,k1_large_clipboard_R.png,large,m,1,1728,7,6,k1_large_clipboard_R.png,306815,357930,1992,Woman
970977,OSSe5,v2,jsons/s12.json,-0.519997857,1366,651,1366,768,9/2/23,11/17/48,1,8,c2,c2_small_eraser,c2_small_eraser,eraser,R,classroom,1,scaled,c2_small_eraser_R.png,small,m,1,1589,8,4,c2_small_eraser_R.png,306815,357930,1992,Woman
970977,OSSe5,v2,jsons/s12.json,-0.706601056,1366,651,1366,768,9/2/23,11/17/48,1,9,k7,k7_large_pot,k7_large_pot,pot,R,kitchen,1,scaled,k7_large_pot_R.png,large,m,1,1478,9,4,k7_large_pot_R.png,306815,357930,1992,Woman
970977,OSSe5,v2,jsons/s12.json,-0.319945779,1366,651,1366,768,9/2/23,11/17/48,1,10,c6,c6_small_notebook,c6_small_notebook,notebook,R,classroom,1,misscaled,c6_small_notebook_R.png,small,m,1,1708,10,1,c6_small_notebook_R.png,306815,357930,1992,Woman
970977,OSSe5,v2,jsons/s12.json,0.6466924120093931,1366,651,1366,768,9/2/23,11/17/48,1,11,k8,k8_large_saltshaker,k8_large_saltshaker,saltshaker,L,kitchen,1,misscaled,k8_large_saltshaker_L.png,large,c,1,2283,11,5,k8_large_saltshaker_L.png,306815,357930,1992,Woman
970977,OSSe5,v2,jsons/s12.json,0.6819957198610225,1366,651,1366,768,9/2/23,11/17/48,1,12,k5,k5_large_laptop,k5_large_laptop,laptop,R,classroom,0,scaled,k5_large_laptop_R.png,large,m,1,2304,12,5,k5_large_laptop_R.png,306815,357930,1992,Woman
970977,OSSe5,v2,jsons/s12.json,1.613330603,1366,651,1366,768,9/2/23,11/17/48,1,13,k2,k2_large_eraser,k2_large_eraser,eraser,L,classroom,0,misscaled,k2_large_eraser_L.png,large,c,1,2858,13,7,k2_large_eraser_L.png,306815,357930,1992,Woman
970977,OSSe5,v2,jsons/s12.json,1.3325852502696214,1366,651,1366,768,9/2/23,11/17/48,1,14,k3,k3_large_flashdrive,k3_large_flashdrive,flashdrive,L,classroom,0,misscaled,k3_large_flashdrive_L.png,large,c,1,2691,14,7,k3_large_flashdrive_L.png,306815,357930,1992,Woman
970977,OSSe5,v2,jsons/s12.json,1.7814415929546237,1366,651,1366,768,9/2/23,11/17/48,1,15,k6,k6_large_notebook,k6_large_notebook,notebook,R,classroom,0,scaled,k6_large_notebook_R.png,large,m,1,2958,15,6,k6_large_notebook_R.png,306815,357930,1992,Woman
970977,OSSe5,v2,jsons/s12.json,0.006189541,1366,651,1366,768,9/2/23,11/17/48,1,17,c8,c8_small_saltshaker,c8_small_saltshaker,saltshaker,L,kitchen,0,scaled,c8_small_saltshaker_L.png,small,c,1,1902,17,3,c8_small_saltshaker_L.png,306815,357930,1992,Woman
970977,OSSe5,v2,jsons/s12.json,0.1406783328027051,1366,651,1366,768,9/2/23,11/17/48,1,18,c10,c10_small_spoon,c10_small_spoon,spoon,R,kitchen,0,scaled,c10_small_spoon_R.png,small,m,1,1982,18,3,c10_small_spoon_R.png,306815,357930,1992,Woman
970977,OSSe5,v2,jsons/s12.json,0.4953925212166958,1366,651,1366,768,9/2/23,11/17/48,1,19,c3,c3_small_flashdrive,c3_small_flashdrive,flashdrive,R,classroom,1,scaled,c3_small_flashdrive_R.png,small,m,1,2193,19,4,c3_small_flashdrive_R.png,306815,357930,1992,Woman
970977,OSSe5,v2,jsons/s12.json,-0.9688542,1366,651,1366,768,9/2/23,11/17/48,1,20,c7,c7_small_pot,c7_small_pot,pot,R,kitchen,0,misscaled,c7_small_pot_R.png,small,m,1,1322,20,2,c7_small_pot_R.png,306815,357930,1992,Woman
970977,OSSe5,v2,jsons/s12.json,-0.328351329,1366,651,1366,768,9/2/23,11/17/48,1,21,k9,k9_large_sponge,k9_large_sponge,sponge,R,kitchen,1,misscaled,k9_large_sponge_R.png,large,m,1,1703,21,7,k9_large_sponge_R.png,306815,357930,1992,Woman
970977,OSSe5,v2,jsons/s12.json,1.7982526919315902,1366,651,1366,768,9/2/23,11/17/48,1,23,c5,c5_small_laptop,c5_small_laptop,laptop,L,classroom,1,misscaled,c5_small_laptop_L.png,small,c,1,2968,23,1,c5_small_laptop_L.png,306815,357930,1992,Woman
582271,OSSe5,v2,jsons/s23.json,0.142807131,1364,619,1364,768,9/3/23,10/16/32,1,0,c11,c11_small_binderclip,c11_small_binderclip,binderclip,L,classroom,1,scaled,c11_small_binderclip_L.png,small,c,1,2011,0,5,c11_small_binderclip_L.png,288192,375891,33,Man
582271,OSSe5,v2,jsons/s23.json,1.4880100773699032,1818,825,1364,768,9/3/23,10/16/32,1,1,k1,k1_small_eraser,k1_small_eraser,eraser,R,classroom,0,scaled,k1_small_eraser_R.png,small,m,1,2847,1,4,k1_small_eraser_R.png,288192,375891,33,Man
582271,OSSe5,v2,jsons/s23.json,2.0125748626876523,1818,825,1364,768,9/3/23,10/16/32,1,2,c3,c3_large_kettle,c3_large_kettle,kettle,L,kitchen,0,scaled,c3_large_kettle_L.png,large,c,1,3173,2,5,c3_large_kettle_L.png,288192,375891,33,Man
582271,OSSe5,v2,jsons/s23.json,2.7575855853935347,1818,825,1364,768,9/3/23,10/16/32,1,3,k6,k6_small_pot,k6_small_pot,pot,L,kitchen,1,misscaled,k6_small_pot_L.png,small,c,1,3636,3,1,k6_small_pot_L.png,288192,375891,33,Man
582271,OSSe5,v2,jsons/s23.json,-0.063156957,1818,825,1364,768,9/3/23,10/16/32,1,4,k5,k5_small_notebook,k5_small_notebook,notebook,R,classroom,0,misscaled,k5_small_notebook_R.png,small,m,1,1883,4,3,k5_small_notebook_R.png,288192,375891,33,Man
582271,OSSe5,v2,jsons/s23.json,-0.763113035,1818,825,1364,768,9/3/23,10/16/32,1,6,k8,k8_small_sponge,k8_small_sponge,sponge,R,kitchen,1,scaled,k8_small_sponge_R.png,small,m,1,1448,6,2,k8_small_sponge_R.png,288192,375891,33,Man
582271,OSSe5,v2,jsons/s23.json,-0.417157732,1818,825,1364,768,9/3/23,10/16/32,1,8,c6,c6_large_pot,c6_large_pot,pot,L,kitchen,0,scaled,c6_large_pot_L.png,large,c,1,1663,8,3,c6_large_pot_L.png,288192,375891,33,Man
582271,OSSe5,v2,jsons/s23.json,-0.846785946,1818,825,1364,768,9/3/23,10/16/32,1,10,c1,c1_large_eraser,c1_large_eraser,eraser,R,classroom,1,misscaled,c1_large_eraser_R.png,large,m,1,1396,10,6,c1_large_eraser_R.png,288192,375891,33,Man
582271,OSSe5,v2,jsons/s23.json,-0.454166904,1818,825,1364,768,9/3/23,10/16/32,1,11,c10,c10_large_toaster,c10_large_toaster,toaster,L,kitchen,0,scaled,c10_large_toaster_L.png,large,c,1,1640,11,5,c10_large_toaster_L.png,288192,375891,33,Man
582271,OSSe5,v2,jsons/s23.json,-1.067231883,1818,825,1364,768,9/3/23,10/16/32,1,12,k9,k9_small_spoon,k9_small_spoon,spoon,R,kitchen,1,scaled,k9_small_spoon_R.png,small,m,1,1259,12,4,k9_small_spoon_R.png,288192,375891,33,Man
582271,OSSe5,v2,jsons/s23.json,-0.420375921,1818,825,1364,768,9/3/23,10/16/32,1,13,c8,c8_large_sponge,c8_large_sponge,sponge,R,kitchen,0,misscaled,c8_large_sponge_R.png,large,m,1,1661,13,7,c8_large_sponge_R.png,288192,375891,33,Man
582271,OSSe5,v2,jsons/s23.json,-0.458994187,1818,825,1364,768,9/3/23,10/16/32,1,14,k4,k4_small_laptop,k4_small_laptop,laptop,L,classroom,0,misscaled,k4_small_laptop_L.png,small,c,1,1637,14,1,k4_small_laptop_L.png,288192,375891,33,Man
582271,OSSe5,v2,jsons/s23.json,-0.681049219,1818,825,1364,768,9/3/23,10/16/32,1,15,c7,c7_large_saltshaker,c7_large_saltshaker,saltshaker,L,kitchen,0,misscaled,c7_large_saltshaker_L.png,large,c,1,1499,15,3,c7_large_saltshaker_L.png,288192,375891,33,Man
582271,OSSe5,v2,jsons/s23.json,-0.79046764,1818,825,1364,768,9/3/23,10/16/32,1,16,c0,c0_large_clipboard,c0_large_clipboard,clipboard,R,classroom,1,scaled,c0_large_clipboard_R.png,large,m,1,1431,16,6,c0_large_clipboard_R.png,288192,375891,33,Man
582271,OSSe5,v2,jsons/s23.json,-0.605421781,1818,825,1364,768,9/3/23,10/16/32,1,17,c4,c4_large_laptop,c4_large_laptop,laptop,L,classroom,1,scaled,c4_large_laptop_L.png,large,c,1,1546,17,6,c4_large_laptop_L.png,288192,375891,33,Man
582271,OSSe5,v2,jsons/s23.json,-0.018102312,1818,825,1364,768,9/3/23,10/16/32,1,18,k3,k3_small_kettle,k3_small_kettle,kettle,R,kitchen,1,misscaled,k3_small_kettle_R.png,small,m,1,1911,18,1,k3_small_kettle_R.png,288192,375891,33,Man
582271,OSSe5,v2,jsons/s23.json,-0.700358352,1818,825,1364,768,9/3/23,10/16/32,1,19,k11,k11_large_binderclip,k11_large_binderclip,binderclip,L,classroom,0,misscaled,k11_large_binderclip_L.png,large,c,1,1487,19,7,k11_large_binderclip_L.png,288192,375891,33,Man
582271,OSSe5,v2,jsons/s23.json,-0.603812686,1818,825,1364,768,9/3/23,10/16/32,1,20,c9,c9_large_spoon,c9_large_spoon,spoon,R,kitchen,0,misscaled,c9_large_spoon_R.png,large,m,1,1547,20,7,c9_large_spoon_R.png,288192,375891,33,Man
582271,OSSe5,v2,jsons/s23.json,0.8701178149097326,1818,825,1364,768,9/3/23,10/16/32,1,21,k10,k10_small_toaster,k10_small_toaster,toaster,L,kitchen,1,misscaled,k10_small_toaster_L.png,small,c,1,2463,21,2,k10_small_toaster_L.png,288192,375891,33,Man
582271,OSSe5,v2,jsons/s23.json,0.3873894848627242,1818,825,1364,768,9/3/23,10/16/32,1,22,k7,k7_small_saltshaker,k7_small_saltshaker,saltshaker,L,kitchen,1,scaled,k7_small_saltshaker_L.png,small,c,1,2163,22,1,k7_small_saltshaker_L.png,288192,375891,33,Man
582271,OSSe5,v2,jsons/s23.json,-0.713231108,1818,825,1364,768,9/3/23,10/16/32,1,23,k2,k2_small_flashdrive,k2_small_flashdrive,flashdrive,L,classroom,0,scaled,k2_small_flashdrive_L.png,small,c,1,1479,23,1,k2_small_flashdrive_L.png,288192,375891,33,Man
338746,OSSe5,v2,jsons/s1.json,-0.269287262,1024,651,1024,768,9/2/23,10-56-39,1,0,c8,c8_large_pot,c8_large_pot,pot,L,kitchen,0,scaled,c8_large_pot_L.png,large,c,1,1483,0,7,c8_large_pot_L.png,453128,587794,36,Man
338746,OSSe5,v2,jsons/s1.json,1.5781719578899367,1024,651,1024,768,9/2/23,10-56-39,1,1,c7,c7_large_notebook,c7_large_notebook,notebook,R,classroom,1,scaled,c7_large_notebook_R.png,large,m,1,2633,1,7,c7_large_notebook_R.png,453128,587794,36,Man
338746,OSSe5,v2,jsons/s1.json,-0.695006126,1024,651,1024,768,9/2/23,10-56-39,1,2,k1,k1_small_binderclip,k1_small_binderclip,binderclip,R,classroom,0,scaled,k1_small_binderclip_R.png,small,m,1,1218,2,7,k1_small_binderclip_R.png,453128,587794,36,Man
338746,OSSe5,v2,jsons/s1.json,-0.836376919,1024,651,1024,768,9/2/23,10-56-39,1,3,c3,c3_large_eraser,c3_large_eraser,eraser,R,classroom,1,misscaled,c3_large_eraser_R.png,large,m,1,1130,3,7,c3_large_eraser_R.png,453128,587794,36,Man
338746,OSSe5,v2,jsons/s1.json,-0.630746675,1024,651,1024,768,9/2/23,10-56-39,1,4,k10,k10_small_sponge,k10_small_sponge,sponge,L,kitchen,1,scaled,k10_small_sponge_L.png,small,c,1,1258,4,4,k10_small_sponge_L.png,453128,587794,36,Man
338746,OSSe5,v2,jsons/s1.json,0.4359602138413351,1024,651,1024,768,9/2/23,10-56-39,1,5,c6,c6_large_laptop,c6_large_laptop,laptop,L,classroom,1,scaled,c6_large_laptop_L.png,large,c,1,1922,5,4,c6_large_laptop_L.png,453128,587794,36,Man
338746,OSSe5,v2,jsons/s1.json,0.6303450535458087,1024,651,1024,768,9/2/23,10-56-39,1,6,k2,k2_small_clipboard,k2_small_clipboard,clipboard,R,classroom,0,misscaled,k2_small_clipboard_R.png,small,m,1,2043,6,3,k2_small_clipboard_R.png,453128,587794,36,Man
338746,OSSe5,v2,jsons/s1.json,-0.217879702,1024,651,1024,768,9/2/23,10-56-39,1,7,c10,c10_large_sponge,c10_large_sponge,sponge,L,kitchen,0,misscaled,c10_large_sponge_L.png,large,c,1,1515,7,7,c10_large_sponge_L.png,453128,587794,36,Man
338746,OSSe5,v2,jsons/s1.json,2.389447528557368,1024,651,1024,768,9/2/23,10-56-39,1,8,c11,c11_large_spoon,c11_large_spoon,spoon,R,kitchen,0,misscaled,c11_large_spoon_R.png,large,m,1,3138,8,7,c11_large_spoon_R.png,453128,587794,36,Man
338746,OSSe5,v2,jsons/s1.json,-0.423509945,1024,651,1024,768,9/2/23,10-56-39,1,9,k8,k8_small_pot,k8_small_pot,pot,L,kitchen,1,misscaled,k8_small_pot_L.png,small,c,1,1387,9,3,k8_small_pot_L.png,453128,587794,36,Man
338746,OSSe5,v2,jsons/s1.json,-0.643598565,1024,651,1024,768,9/2/23,10-56-39,1,11,c9,c9_large_saltshaker,c9_large_saltshaker,saltshaker,R,kitchen,0,misscaled,c9_large_saltshaker_R.png,large,m,1,1250,11,7,c9_large_saltshaker_R.png,453128,587794,36,Man
338746,OSSe5,v2,jsons/s1.json,-0.71910342,1024,651,1024,768,9/2/23,10-56-39,1,12,k7,k7_small_notebook,k7_small_notebook,notebook,R,classroom,0,misscaled,k7_small_notebook_R.png,small,m,1,1203,12,5,k7_small_notebook_R.png,453128,587794,36,Man
338746,OSSe5,v2,jsons/s1.json,-0.397806165,1024,651,1024,768,9/2/23,10-56-39,1,13,c0,c0_small_toaster,c0_small_toaster,toaster,R,kitchen,0,misscaled,c0_small_toaster_R.png,small,m,1,1403,13,2,c0_small_toaster_R.png,453128,587794,36,Man
338746,OSSe5,v2,jsons/s1.json,0.28013104482204626,1024,651,1024,768,9/2/23,10-56-39,1,14,c2,c2_large_clipboard,c2_large_clipboard,clipboard,L,classroom,1,scaled,c2_large_clipboard_L.png,large,c,1,1825,14,7,c2_large_clipboard_L.png,453128,587794,36,Man
338746,OSSe5,v2,jsons/s1.json,1.1685179568598474,1024,651,1024,768,9/2/23,10-56-39,1,15,k0,k0_large_toaster,k0_large_toaster,toaster,R,kitchen,1,scaled,k0_large_toaster_R.png,large,m,1,2378,15,6,k0_large_toaster_R.png,453128,587794,36,Man
338746,OSSe5,v2,jsons/s1.json,-0.797821248,1024,651,1024,768,9/2/23,10-56-39,1,16,k5,k5_small_kettle,k5_small_kettle,kettle,L,kitchen,1,misscaled,k5_small_kettle_L.png,small,c,1,1154,16,1,k5_small_kettle_L.png,453128,587794,36,Man
338746,OSSe5,v2,jsons/s1.json,1.0528509448042929,1024,651,1024,768,9/2/23,10-56-39,1,17,c4,c4_large_flashdrive,c4_large_flashdrive,flashdrive,R,classroom,1,misscaled,c4_large_flashdrive_R.png,large,m,1,2306,17,7,c4_large_flashdrive_R.png,453128,587794,36,Man
338746,OSSe5,v2,jsons/s1.json,2.211127551638388,1024,651,1024,768,9/2/23,10-56-39,1,18,k3,k3_small_eraser,k3_small_eraser,eraser,L,classroom,0,scaled,k3_small_eraser_L.png,small,c,1,3027,18,1,k3_small_eraser_L.png,453128,587794,36,Man
338746,OSSe5,v2,jsons/s1.json,-1.156067688,1024,651,1024,768,9/2/23,10-56-39,1,19,k11,k11_small_spoon,k11_small_spoon,spoon,L,kitchen,1,scaled,k11_small_spoon_L.png,small,c,1,931,19,5,k11_small_spoon_L.png,453128,587794,36,Man
338746,OSSe5,v2,jsons/s1.json,-0.71910342,1024,651,1024,768,9/2/23,10-56-39,1,20,k6,k6_small_laptop,k6_small_laptop,laptop,L,classroom,0,misscaled,k6_small_laptop_L.png,small,c,1,1203,20,1,k6_small_laptop_L.png,453128,587794,36,Man
338746,OSSe5,v2,jsons/s1.json,-0.617894785,1024,651,1024,768,9/2/23,10-56-39,1,21,k9,k9_small_saltshaker,k9_small_saltshaker,saltshaker,L,kitchen,1,scaled,k9_small_saltshaker_L.png,small,c,1,1266,21,4,k9_small_saltshaker_L.png,453128,587794,36,Man
338746,OSSe5,v2,jsons/s1.json,-0.55524182,1024,651,1024,768,9/2/23,10-56-39,1,22,c5,c5_large_kettle,c5_large_kettle,kettle,R,kitchen,0,scaled,c5_large_kettle_R.png,large,m,1,1305,22,4,c5_large_kettle_R.png,453128,587794,36,Man
338746,OSSe5,v2,jsons/s1.json,-0.695006126,1024,651,1024,768,9/2/23,10-56-39,1,23,c1,c1_large_binderclip,c1_large_binderclip,binderclip,R,classroom,1,misscaled,c1_large_binderclip_R.png,large,m,1,1218,23,7,c1_large_binderclip_R.png,453128,587794,36,Man
673241,OSSe5,v2,jsons/s9.json,0.6276200553712515,1280,875,1280,1024,9/2/23,16-57-8,1,0,k10,k10_small_clipboard,k10_small_clipboard,clipboard,R,classroom,0,misscaled,k10_small_clipboard_R.png,small,m,1,2533,0,2,k10_small_clipboard_R.png,343659,519048,25,Woman
673241,OSSe5,v2,jsons/s9.json,3.2667341170336988,1280,875,1280,1024,9/2/23,16-57-8,1,1,c2,c2_small_laptop,c2_small_laptop,laptop,R,classroom,1,misscaled,c2_small_laptop_R.png,small,m,1,4400,1,1,c2_small_laptop_R.png,343659,519048,25,Woman
673241,OSSe5,v2,jsons/s9.json,-0.566837032,1280,875,1280,1024,9/2/23,16-57-8,1,2,k0,k0_large_flashdrive,k0_large_flashdrive,flashdrive,R,classroom,0,misscaled,k0_large_flashdrive_R.png,large,m,1,1688,2,6,k0_large_flashdrive_R.png,343659,519048,25,Woman
673241,OSSe5,v2,jsons/s9.json,0.4212404876140382,1280,875,1280,1024,9/2/23,16-57-8,1,3,c4,c4_small_pot,c4_small_pot,pot,R,kitchen,0,misscaled,c4_small_pot_R.png,small,m,1,2387,3,3,c4_small_pot_R.png,343659,519048,25,Woman
673241,OSSe5,v2,jsons/s9.json,-0.031098291,1280,875,1280,1024,9/2/23,16-57-8,1,4,k2,k2_large_laptop,k2_large_laptop,laptop,L,classroom,0,scaled,k2_large_laptop_L.png,large,c,1,2067,4,4,k2_large_laptop_L.png,343659,519048,25,Woman
673241,OSSe5,v2,jsons/s9.json,-0.530084506,1280,875,1280,1024,9/2/23,16-57-8,1,5,c0,c0_small_flashdrive,c0_small_flashdrive,flashdrive,L,classroom,1,scaled,c0_small_flashdrive_L.png,small,c,1,1714,5,4,c0_small_flashdrive_L.png,343659,519048,25,Woman
673241,OSSe5,v2,jsons/s9.json,-0.189416864,1280,875,1280,1024,9/2/23,16-57-8,1,6,c1,c1_small_kettle,c1_small_kettle,kettle,R,kitchen,0,misscaled,c1_small_kettle_R.png,small,m,1,1955,6,2,c1_small_kettle_R.png,343659,519048,25,Woman
673241,OSSe5,v2,jsons/s9.json,-0.552701445,1280,875,1280,1024,9/2/23,16-57-8,1,7,c8,c8_small_toaster,c8_small_toaster,toaster,R,kitchen,0,misscaled,c8_small_toaster_R.png,small,m,1,1698,7,3,c8_small_toaster_R.png,343659,519048,25,Woman
673241,OSSe5,v2,jsons/s9.json,0.3307727318848488,1280,875,1280,1024,9/2/23,16-57-8,1,8,c11,c11_large_eraser,c11_large_eraser,eraser,R,classroom,1,misscaled,c11_large_eraser_R.png,large,m,1,2323,8,7,c11_large_eraser_R.png,343659,519048,25,Woman
673241,OSSe5,v2,jsons/s9.json,-0.754840337,1280,875,1280,1024,9/2/23,16-57-8,1,9,k7,k7_large_spoon,k7_large_spoon,spoon,R,kitchen,1,misscaled,k7_large_spoon_R.png,large,m,1,1555,9,6,k7_large_spoon_R.png,343659,519048,25,Woman
673241,OSSe5,v2,jsons/s9.json,-0.416999812,1280,875,1280,1024,9/2/23,16-57-8,1,10,k9,k9_small_binderclip,k9_small_binderclip,binderclip,L,classroom,0,scaled,k9_small_binderclip_L.png,small,c,1,1794,10,5,k9_small_binderclip_L.png,343659,519048,25,Woman
673241,OSSe5,v2,jsons/s9.json,-0.619138703,1280,875,1280,1024,9/2/23,16-57-8,1,11,k1,k1_large_kettle,k1_large_kettle,kettle,L,kitchen,1,scaled,k1_large_kettle_L.png,large,c,1,1651,11,4,k1_large_kettle_L.png,343659,519048,25,Woman
673241,OSSe5,v2,jsons/s9.json,-0.121566047,1280,875,1280,1024,9/2/23,16-57-8,1,12,c6,c6_small_sponge,c6_small_sponge,sponge,L,kitchen,0,scaled,c6_small_sponge_L.png,small,c,1,2003,12,4,c6_small_sponge_L.png,343659,519048,25,Woman
673241,OSSe5,v2,jsons/s9.json,-0.462233689,1280,875,1280,1024,9/2/23,16-57-8,1,13,k5,k5_large_saltshaker,k5_large_saltshaker,saltshaker,R,kitchen,1,misscaled,k5_large_saltshaker_R.png,large,m,1,1762,13,6,k5_large_saltshaker_R.png,343659,519048,25,Woman
673241,OSSe5,v2,jsons/s9.json,-1.027657163,1280,875,1280,1024,9/2/23,16-57-8,1,14,k6,k6_large_sponge,k6_large_sponge,sponge,R,kitchen,1,misscaled,k6_large_sponge_R.png,large,m,1,1362,14,6,k6_large_sponge_R.png,343659,519048,25,Woman
673241,OSSe5,v2,jsons/s9.json,-0.506054009,1280,875,1280,1024,9/2/23,16-57-8,1,15,c7,c7_small_spoon,c7_small_spoon,spoon,R,kitchen,0,scaled,c7_small_spoon_R.png,small,m,1,1731,15,4,c7_small_spoon_R.png,343659,519048,25,Woman
673241,OSSe5,v2,jsons/s9.json,-0.394382873,1280,875,1280,1024,9/2/23,16-57-8,1,16,k8,k8_large_toaster,k8_large_toaster,toaster,L,kitchen,1,scaled,k8_large_toaster_L.png,large,c,1,1810,16,4,k8_large_toaster_L.png,343659,519048,25,Woman
673241,OSSe5,v2,jsons/s9.json,0.8735792662599853,1280,875,1280,1024,9/2/23,16-57-8,1,17,c3,c3_small_notebook,c3_small_notebook,notebook,L,classroom,1,misscaled,c3_small_notebook_L.png,small,c,1,2707,17,4,c3_small_notebook_L.png,343659,519048,25,Woman
673241,OSSe5,v2,jsons/s9.json,-0.733636957,1280,875,1280,1024,9/2/23,16-57-8,1,18,c10,c10_large_clipboard,c10_large_clipboard,clipboard,R,classroom,1,scaled,c10_large_clipboard_R.png,large,m,1,1570,18,5,c10_large_clipboard_R.png,343659,519048,25,Woman
673241,OSSe5,v2,jsons/s9.json,-0.190830422,1280,875,1280,1024,9/2/23,16-57-8,1,19,c9,c9_large_binderclip,c9_large_binderclip,binderclip,L,classroom,1,misscaled,c9_large_binderclip_L.png,large,c,1,1954,19,7,c9_large_binderclip_L.png,343659,519048,25,Woman
673241,OSSe5,v2,jsons/s9.json,-0.496159098,1280,875,1280,1024,9/2/23,16-57-8,1,21,c5,c5_small_saltshaker,c5_small_saltshaker,saltshaker,L,kitchen,0,scaled,c5_small_saltshaker_L.png,small,c,1,1738,21,2,c5_small_saltshaker_L.png,343659,519048,25,Woman
673241,OSSe5,v2,jsons/s9.json,2.3422667381760447,1280,875,1280,1024,9/2/23,16-57-8,1,22,k3,k3_large_notebook,k3_large_notebook,notebook,L,classroom,0,scaled,k3_large_notebook_L.png,large,c,1,3746,22,4,k3_large_notebook_L.png,343659,519048,25,Woman
673241,OSSe5,v2,jsons/s9.json,-0.756253896,1280,875,1280,1024,9/2/23,16-57-8,1,23,k11,k11_small_eraser,k11_small_eraser,eraser,L,classroom,0,scaled,k11_small_eraser_L.png,small,c,1,1554,23,4,k11_small_eraser_L.png,343659,519048,25,Woman
605990,OSSe5,v2,jsons/s5.json,-0.680877161,1366,619,1366,768,9/9/23,11-34-2,1,0,k5,k5_small_binderclip,k5_small_binderclip,binderclip,R,classroom,0,scaled,k5_small_binderclip_R.png,small,m,1,1071,0,6,k5_small_binderclip_R.png,301729,349926,27,Woman
605990,OSSe5,v2,jsons/s5.json,-0.834781446,1366,619,1366,768,9/9/23,11-34-2,1,1,c10,c10_large_laptop,c10_large_laptop,laptop,R,classroom,1,scaled,c10_large_laptop_R.png,large,m,1,978,1,4,c10_large_laptop_R.png,301729,349926,27,Woman
605990,OSSe5,v2,jsons/s5.json,-0.331696472,1366,619,1366,768,9/9/23,11-34-2,1,2,k10,k10_small_laptop,k10_small_laptop,laptop,R,classroom,0,misscaled,k10_small_laptop_R.png,small,m,1,1282,2,1,k10_small_laptop_R.png,301729,349926,27,Woman
605990,OSSe5,v2,jsons/s5.json,-0.399546748,1366,619,1366,768,9/9/23,11-34-2,1,3,c11,c11_large_notebook,c11_large_notebook,notebook,L,classroom,1,scaled,c11_large_notebook_L.png,large,c,1,1241,3,4,c11_large_notebook_L.png,301729,349926,27,Woman
605990,OSSe5,v2,jsons/s5.json,-1.001924809,1366,619,1366,768,9/9/23,11-34-2,1,4,k1,k1_large_saltshaker,k1_large_saltshaker,saltshaker,R,kitchen,1,misscaled,k1_large_saltshaker_R.png,large,m,1,877,4,7,k1_large_saltshaker_R.png,301729,349926,27,Woman
605990,OSSe5,v2,jsons/s5.json,-0.109941911,1366,619,1366,768,9/9/23,11-34-2,1,6,c4,c4_small_toaster,c4_small_toaster,toaster,R,kitchen,0,misscaled,c4_small_toaster_R.png,small,m,1,1416,6,2,c4_small_toaster_R.png,301729,349926,27,Woman
605990,OSSe5,v2,jsons/s5.json,-0.359829513,1366,619,1366,768,9/9/23,11-34-2,1,7,k8,k8_small_flashdrive,k8_small_flashdrive,flashdrive,L,classroom,0,scaled,k8_small_flashdrive_L.png,small,c,1,1265,7,4,k8_small_flashdrive_L.png,301729,349926,27,Woman
605990,OSSe5,v2,jsons/s5.json,-0.013958593,1366,619,1366,768,9/9/23,11-34-2,1,8,c6,c6_large_clipboard,c6_large_clipboard,clipboard,L,classroom,1,scaled,c6_large_clipboard_L.png,large,c,1,1474,8,6,c6_large_clipboard_L.png,301729,349926,27,Woman
605990,OSSe5,v2,jsons/s5.json,0.27895601338307563,1366,619,1366,768,9/9/23,11-34-2,1,9,k7,k7_small_eraser,k7_small_eraser,eraser,L,classroom,0,scaled,k7_small_eraser_L.png,small,c,1,1651,9,4,k7_small_eraser_L.png,301729,349926,27,Woman
605990,OSSe5,v2,jsons/s5.json,0.4113467961080845,1366,619,1366,768,9/9/23,11-34-2,1,10,c0,c0_small_pot,c0_small_pot,pot,R,kitchen,0,misscaled,c0_small_pot_R.png,small,m,1,1731,10,1,c0_small_pot_R.png,301729,349926,27,Woman
605990,OSSe5,v2,jsons/s5.json,0.11512241976087713,1366,619,1366,768,9/9/23,11-34-2,1,11,k6,k6_small_clipboard,k6_small_clipboard,clipboard,R,classroom,0,misscaled,k6_small_clipboard_R.png,small,m,1,1552,11,1,k6_small_clipboard_R.png,301729,349926,27,Woman
605990,OSSe5,v2,jsons/s5.json,-0.737143244,1366,619,1366,768,9/9/23,11-34-2,1,12,c1,c1_small_saltshaker,c1_small_saltshaker,saltshaker,L,kitchen,0,scaled,c1_small_saltshaker_L.png,small,c,1,1037,12,4,c1_small_saltshaker_L.png,301729,349926,27,Woman
605990,OSSe5,v2,jsons/s5.json,0.5900743527868465,1366,619,1366,768,9/9/23,11-34-2,1,13,k3,k3_large_spoon,k3_large_spoon,spoon,L,kitchen,1,misscaled,k3_large_spoon_L.png,large,c,1,1839,13,7,k3_large_spoon_L.png,301729,349926,27,Woman
605990,OSSe5,v2,jsons/s5.json,1.060061631460628,1366,619,1366,768,9/9/23,11-34-2,1,14,k11,k11_small_notebook,k11_small_notebook,notebook,R,classroom,0,misscaled,k11_small_notebook_R.png,small,m,1,2123,14,3,k11_small_notebook_R.png,301729,349926,27,Woman
605990,OSSe5,v2,jsons/s5.json,-0.540211955,1366,619,1366,768,9/9/23,11-34-2,1,15,c2,c2_small_sponge,c2_small_sponge,sponge,L,kitchen,0,scaled,c2_small_sponge_L.png,small,c,1,1156,15,4,c2_small_sponge_L.png,301729,349926,27,Woman
605990,OSSe5,v2,jsons/s5.json,-0.290324352,1366,619,1366,768,9/9/23,11-34-2,1,16,c7,c7_large_eraser,c7_large_eraser,eraser,L,classroom,1,misscaled,c7_large_eraser_L.png,large,c,1,1307,16,5,c7_large_eraser_L.png,301729,349926,27,Woman
605990,OSSe5,v2,jsons/s5.json,-0.427679789,1366,619,1366,768,9/9/23,11-34-2,1,17,k0,k0_large_pot,k0_large_pot,pot,R,kitchen,1,scaled,k0_large_pot_R.png,large,m,1,1224,17,4,k0_large_pot_R.png,301729,349926,27,Woman
605990,OSSe5,v2,jsons/s5.json,1.5763856840881625,1366,619,1366,768,9/9/23,11-34-2,1,18,c3,c3_small_spoon,c3_small_spoon,spoon,R,kitchen,0,scaled,c3_small_spoon_R.png,small,m,1,2435,18,4,c3_small_spoon_R.png,301729,349926,27,Woman
605990,OSSe5,v2,jsons/s5.json,-0.411130942,1366,619,1366,768,9/9/23,11-34-2,1,21,k2,k2_large_sponge,k2_large_sponge,sponge,L,kitchen,1,misscaled,k2_large_sponge_L.png,large,c,1,1234,21,7,k2_large_sponge_L.png,301729,349926,27,Woman
605990,OSSe5,v2,jsons/s5.json,-0.743762783,1366,619,1366,768,9/9/23,11-34-2,1,22,c9,c9_large_kettle,c9_large_kettle,kettle,L,kitchen,0,scaled,c9_large_kettle_L.png,large,c,1,1033,22,4,c9_large_kettle_L.png,301729,349926,27,Woman
605990,OSSe5,v2,jsons/s5.json,3.459644568351413,1366,619,1366,768,9/9/23,11-34-2,1,23,k9,k9_small_kettle,k9_small_kettle,kettle,R,kitchen,1,misscaled,k9_small_kettle_R.png,small,m,1,3573,23,1,k9_small_kettle_R.png,301729,349926,27,Woman
228531,OSSe5,v2,jsons/s6.json,0.2937705839645787,1366,619,1366,768,9/2/23,13-6-41,1,0,k6,k6_small_binderclip,k6_small_binderclip,binderclip,L,classroom,0,scaled,k6_small_binderclip_L.png,small,c,1,1547,0,4,k6_small_binderclip_L.png,280604,337167,25,Woman
228531,OSSe5,v2,jsons/s6.json,-0.321459511,1366,619,1366,768,9/2/23,13-6-41,1,1,c7,c7_large_clipboard,c7_large_clipboard,clipboard,R,classroom,1,scaled,c7_large_clipboard_R.png,large,m,1,1260,1,7,c7_large_clipboard_R.png,280604,337167,25,Woman
228531,OSSe5,v2,jsons/s6.json,-0.143535825,1366,619,1366,768,9/2/23,13-6-41,1,2,k1,k1_large_pot,k1_large_pot,pot,R,kitchen,1,scaled,k1_large_pot_R.png,large,m,1,1343,2,7,k1_large_pot_R.png,280604,337167,25,Woman
228531,OSSe5,v2,jsons/s6.json,2.9154653788956546,1366,619,1366,768,9/2/23,13-6-41,1,3,c4,c4_small_spoon,c4_small_spoon,spoon,R,kitchen,0,scaled,c4_small_spoon_R.png,small,m,1,2770,3,4,c4_small_spoon_R.png,280604,337167,25,Woman
228531,OSSe5,v2,jsons/s6.json,0.4288210926159751,1366,619,1366,768,9/2/23,13-6-41,1,4,k5,k5_large_toaster,k5_large_toaster,toaster,L,kitchen,1,scaled,k5_large_toaster_L.png,large,c,1,1610,4,7,k5_large_toaster_L.png,280604,337167,25,Woman
228531,OSSe5,v2,jsons/s6.json,-0.162828755,1366,619,1366,768,9/2/23,13-6-41,1,5,c1,c1_small_pot,c1_small_pot,pot,R,kitchen,0,misscaled,c1_small_pot_R.png,small,m,1,1334,5,1,c1_small_pot_R.png,280604,337167,25,Woman
228531,OSSe5,v2,jsons/s6.json,2.733254375159644,1366,619,1366,768,9/2/23,13-6-41,1,6,k10,k10_small_kettle,k10_small_kettle,kettle,R,kitchen,1,misscaled,k10_small_kettle_R.png,small,m,1,2685,6,1,k10_small_kettle_R.png,280604,337167,25,Woman
228531,OSSe5,v2,jsons/s6.json,0.051537132,1366,619,1366,768,9/2/23,13-6-41,1,7,k9,k9_small_flashdrive,k9_small_flashdrive,flashdrive,L,classroom,0,scaled,k9_small_flashdrive_L.png,small,c,1,1434,7,2,k9_small_flashdrive_L.png,280604,337167,25,Woman
228531,OSSe5,v2,jsons/s6.json,-0.743760308,1366,619,1366,768,9/2/23,13-6-41,1,8,c8,c8_large_eraser,c8_large_eraser,eraser,R,classroom,1,misscaled,c8_large_eraser_R.png,large,m,1,1063,8,7,c8_large_eraser_R.png,280604,337167,25,Woman
228531,OSSe5,v2,jsons/s6.json,-0.387912936,1366,619,1366,768,9/2/23,13-6-41,1,9,c6,c6_large_binderclip,c6_large_binderclip,binderclip,R,classroom,1,misscaled,c6_large_binderclip_R.png,large,m,1,1229,9,7,c6_large_binderclip_R.png,280604,337167,25,Woman
228531,OSSe5,v2,jsons/s6.json,-0.842368616,1366,619,1366,768,9/2/23,13-6-41,1,10,c10,c10_large_kettle,c10_large_kettle,kettle,R,kitchen,0,scaled,c10_large_kettle_R.png,large,m,1,1017,10,7,c10_large_kettle_R.png,280604,337167,25,Woman
228531,OSSe5,v2,jsons/s6.json,-0.276442675,1366,619,1366,768,9/2/23,13-6-41,1,11,k7,k7_small_clipboard,k7_small_clipboard,clipboard,R,classroom,0,misscaled,k7_small_clipboard_R.png,small,m,1,1281,11,3,k7_small_clipboard_R.png,280604,337167,25,Woman
228531,OSSe5,v2,jsons/s6.json,-0.362189029,1366,619,1366,768,9/2/23,13-6-41,1,12,c9,c9_large_flashdrive,c9_large_flashdrive,flashdrive,L,classroom,1,misscaled,c9_large_flashdrive_L.png,large,c,1,1241,12,5,c9_large_flashdrive_L.png,280604,337167,25,Woman
228531,OSSe5,v2,jsons/s6.json,-0.092088012,1366,619,1366,768,9/2/23,13-6-41,1,13,k2,k2_large_saltshaker,k2_large_saltshaker,saltshaker,L,kitchen,1,misscaled,k2_large_saltshaker_L.png,large,c,1,1367,13,6,k2_large_saltshaker_L.png,280604,337167,25,Woman
228531,OSSe5,v2,jsons/s6.json,-0.895960087,1366,619,1366,768,9/2/23,13-6-41,1,14,k0,k0_large_notebook,k0_large_notebook,notebook,L,classroom,0,scaled,k0_large_notebook_L.png,large,c,1,992,14,4,k0_large_notebook_L.png,280604,337167,25,Woman
228531,OSSe5,v2,jsons/s6.json,-0.861661546,1366,619,1366,768,9/2/23,13-6-41,1,15,k3,k3_large_sponge,k3_large_sponge,sponge,L,kitchen,1,misscaled,k3_large_sponge_L.png,large,c,1,1008,15,6,k3_large_sponge_L.png,280604,337167,25,Woman
228531,OSSe5,v2,jsons/s6.json,-0.182121685,1366,619,1366,768,9/2/23,13-6-41,1,16,k11,k11_small_laptop,k11_small_laptop,laptop,R,classroom,0,misscaled,k11_small_laptop_R.png,small,m,1,1325,16,1,k11_small_laptop_R.png,280604,337167,25,Woman
228531,OSSe5,v2,jsons/s6.json,-0.855230569,1366,619,1366,768,9/2/23,13-6-41,1,17,k8,k8_small_eraser,k8_small_eraser,eraser,R,classroom,0,scaled,k8_small_eraser_R.png,small,m,1,1011,17,3,k8_small_eraser_R.png,280604,337167,25,Woman
228531,OSSe5,v2,jsons/s6.json,0.5402913537250642,1366,619,1366,768,9/2/23,13-6-41,1,18,c2,c2_small_saltshaker,c2_small_saltshaker,saltshaker,L,kitchen,0,scaled,c2_small_saltshaker_L.png,small,c,1,1662,18,1,c2_small_saltshaker_L.png,280604,337167,25,Woman
228531,OSSe5,v2,jsons/s6.json,-0.405062207,1366,619,1366,768,9/2/23,13-6-41,1,19,c11,c11_large_laptop,c11_large_laptop,laptop,R,classroom,1,scaled,c11_large_laptop_R.png,large,m,1,1221,19,4,c11_large_laptop_R.png,280604,337167,25,Woman
228531,OSSe5,v2,jsons/s6.json,0.3066325371694736,1366,619,1366,768,9/2/23,13-6-41,1,20,c5,c5_small_toaster,c5_small_toaster,toaster,L,kitchen,0,misscaled,c5_small_toaster_L.png,small,c,1,1553,20,1,c5_small_toaster_L.png,280604,337167,25,Woman
228531,OSSe5,v2,jsons/s6.json,-0.537969057,1366,619,1366,768,9/2/23,13-6-41,1,21,c0,c0_small_notebook,c0_small_notebook,notebook,L,classroom,1,misscaled,c0_small_notebook_L.png,small,c,1,1159,21,3,c0_small_notebook_L.png,280604,337167,25,Woman
228531,OSSe5,v2,jsons/s6.json,-1.050303526,1366,619,1366,768,9/2/23,13-6-41,1,22,c3,c3_small_sponge,c3_small_sponge,sponge,L,kitchen,0,scaled,c3_small_sponge_L.png,small,c,1,920,22,2,c3_small_sponge_L.png,280604,337167,25,Woman
200467,OSSe5,v2,jsons/s3.json,0.4774613569231645,1920,963,1920,1080,9/3/23,11/30/15,1,0,c10,c10_large_pot,c10_large_pot,pot,L,kitchen,0,scaled,c10_large_pot_L.png,large,c,1,1523,0,5,c10_large_pot_L.png,249610,299254,35,Woman
200467,OSSe5,v2,jsons/s3.json,-0.187675718,1920,963,1920,1080,9/3/23,11/30/15,1,1,k3,k3_small_binderclip,k3_small_binderclip,binderclip,L,classroom,0,scaled,k3_small_binderclip_L.png,small,c,1,1260,1,4,k3_small_binderclip_L.png,249610,299254,35,Woman
200467,OSSe5,v2,jsons/s3.json,-0.035933419,1920,963,1920,1080,9/3/23,11/30/15,1,2,c7,c7_large_kettle,c7_large_kettle,kettle,R,kitchen,0,scaled,c7_large_kettle_R.png,large,m,1,1320,2,4,c7_large_kettle_R.png,249610,299254,35,Woman
200467,OSSe5,v2,jsons/s3.json,-0.903393558,1920,963,1920,1080,9/3/23,11/30/15,1,3,k5,k5_small_eraser,k5_small_eraser,eraser,L,classroom,0,scaled,k5_small_eraser_L.png,small,c,1,977,3,4,k5_small_eraser_L.png,249610,299254,35,Woman
200467,OSSe5,v2,jsons/s3.json,-0.336888978,1920,963,1920,1080,9/3/23,11/30/15,1,4,c3,c3_large_binderclip,c3_large_binderclip,binderclip,L,classroom,1,misscaled,c3_large_binderclip_L.png,large,c,1,1201,4,7,c3_large_binderclip_L.png,249610,299254,35,Woman
200467,OSSe5,v2,jsons/s3.json,-1.017200282,1920,963,1920,1080,9/3/23,11/30/15,1,5,c5,c5_large_eraser,c5_large_eraser,eraser,L,classroom,1,misscaled,c5_large_eraser_L.png,large,c,1,932,5,6,c5_large_eraser_L.png,249610,299254,35,Woman
200467,OSSe5,v2,jsons/s3.json,1.5902382117253306,1920,963,1920,1080,9/3/23,11/30/15,1,6,k4,k4_small_clipboard,k4_small_clipboard,clipboard,L,classroom,0,misscaled,k4_small_clipboard_L.png,small,c,1,1963,6,4,k4_small_clipboard_L.png,249610,299254,35,Woman
200467,OSSe5,v2,jsons/s3.json,0.17397676015893734,1920,963,1920,1080,9/3/23,11/30/15,1,7,c2,c2_small_toaster,c2_small_toaster,toaster,L,kitchen,0,misscaled,c2_small_toaster_L.png,small,c,1,1403,7,1,c2_small_toaster_L.png,249610,299254,35,Woman
200467,OSSe5,v2,jsons/s3.json,-0.90086452,1920,963,1920,1080,9/3/23,11/30/15,1,8,k10,k10_small_pot,k10_small_pot,pot,R,kitchen,1,misscaled,k10_small_pot_R.png,small,m,1,978,8,1,k10_small_pot_R.png,249610,299254,35,Woman
200467,OSSe5,v2,jsons/s3.json,0.9073978690058196,1920,963,1920,1080,9/3/23,11/30/15,1,9,k2,k2_large_toaster,k2_large_toaster,toaster,L,kitchen,1,scaled,k2_large_toaster_L.png,large,c,1,1693,9,6,k2_large_toaster_L.png,249610,299254,35,Woman
200467,OSSe5,v2,jsons/s3.json,-0.630257421,1920,963,1920,1080,9/3/23,11/30/15,1,10,k1,k1_large_spoon,k1_large_spoon,spoon,R,kitchen,1,misscaled,k1_large_spoon_R.png,large,m,1,1085,10,6,k1_large_spoon_R.png,249610,299254,35,Woman
200467,OSSe5,v2,jsons/s3.json,-1.161355466,1920,963,1920,1080,9/3/23,11/30/15,1,11,k0,k0_large_sponge,k0_large_sponge,sponge,R,kitchen,1,misscaled,k0_large_sponge_R.png,large,m,1,875,11,5,k0_large_sponge_R.png,249610,299254,35,Woman
200467,OSSe5,v2,jsons/s3.json,-0.278721097,1920,963,1920,1080,9/3/23,11/30/15,1,12,c4,c4_large_clipboard,c4_large_clipboard,clipboard,R,classroom,1,scaled,c4_large_clipboard_R.png,large,m,1,1224,12,4,c4_large_clipboard_R.png,249610,299254,35,Woman
200467,OSSe5,v2,jsons/s3.json,-0.298953403,1920,963,1920,1080,9/3/23,11/30/15,1,13,k8,k8_small_laptop,k8_small_laptop,laptop,R,classroom,0,misscaled,k8_small_laptop_R.png,small,m,1,1216,13,1,k8_small_laptop_R.png,249610,299254,35,Woman
200467,OSSe5,v2,jsons/s3.json,-0.157327258,1920,963,1920,1080,9/3/23,11/30/15,1,14,c11,c11_large_saltshaker,c11_large_saltshaker,saltshaker,L,kitchen,0,misscaled,c11_large_saltshaker_L.png,large,c,1,1272,14,7,c11_large_saltshaker_L.png,249610,299254,35,Woman
200467,OSSe5,v2,jsons/s3.json,-0.518979736,1920,963,1920,1080,9/3/23,11/30/15,1,15,k7,k7_small_kettle,k7_small_kettle,kettle,R,kitchen,1,misscaled,k7_small_kettle_R.png,small,m,1,1129,15,1,k7_small_kettle_R.png,249610,299254,35,Woman
200467,OSSe5,v2,jsons/s3.json,1.3322763044757375,1920,963,1920,1080,9/3/23,11/30/15,1,16,c6,c6_large_flashdrive,c6_large_flashdrive,flashdrive,R,classroom,1,misscaled,c6_large_flashdrive_R.png,large,m,1,1861,16,7,c6_large_flashdrive_R.png,249610,299254,35,Woman
200467,OSSe5,v2,jsons/s3.json,0.047524845,1920,963,1920,1080,9/3/23,11/30/15,1,17,c1,c1_small_spoon,c1_small_spoon,spoon,R,kitchen,0,scaled,c1_small_spoon_R.png,small,m,1,1353,17,4,c1_small_spoon_R.png,249610,299254,35,Woman
200467,OSSe5,v2,jsons/s3.json,0.17397676015893734,1920,963,1920,1080,9/3/23,11/30/15,1,18,k11,k11_small_saltshaker,k11_small_saltshaker,saltshaker,L,kitchen,1,scaled,k11_small_saltshaker_L.png,small,c,1,1403,18,4,k11_small_saltshaker_L.png,249610,299254,35,Woman
200467,OSSe5,v2,jsons/s3.json,-0.192733794,1920,963,1920,1080,9/3/23,11/30/15,1,19,c9,c9_large_notebook,c9_large_notebook,notebook,L,classroom,1,scaled,c9_large_notebook_L.png,large,c,1,1258,19,4,c9_large_notebook_L.png,249610,299254,35,Woman
200467,OSSe5,v2,jsons/s3.json,3.385855409247008,1920,963,1920,1080,9/3/23,11/30/15,1,20,k6,k6_small_flashdrive,k6_small_flashdrive,flashdrive,L,classroom,0,scaled,k6_small_flashdrive_L.png,small,c,1,2673,20,4,k6_small_flashdrive_L.png,249610,299254,35,Woman
200467,OSSe5,v2,jsons/s3.json,-0.382411667,1920,963,1920,1080,9/3/23,11/30/15,1,21,c8,c8_large_laptop,c8_large_laptop,laptop,R,classroom,1,scaled,c8_large_laptop_R.png,large,m,1,1183,21,4,c8_large_laptop_R.png,249610,299254,35,Woman
200467,OSSe5,v2,jsons/s3.json,-0.94638721,1920,963,1920,1080,9/3/23,11/30/15,1,22,c0,c0_small_sponge,c0_small_sponge,sponge,R,kitchen,0,scaled,c0_small_sponge_R.png,small,m,1,960,22,3,c0_small_sponge_R.png,249610,299254,35,Woman
200467,OSSe5,v2,jsons/s3.json,-0.13962399,1920,963,1920,1080,9/3/23,11/30/15,1,23,k9,k9_small_notebook,k9_small_notebook,notebook,R,classroom,0,misscaled,k9_small_notebook_R.png,small,m,1,1279,23,4,k9_small_notebook_R.png,249610,299254,35,Woman
